cue1,cue2,cue3,resultGo,resultNoGo,trials_practice.thisRepN,trials_practice.thisTrialN,trials_practice.thisN,trials_practice.thisIndex,trials2.thisRepN,trials2.thisTrialN,trials2.thisN,trials2.thisIndex,background_10.started,background_10.stopped,instruction1.started,instruction1.stopped,mouse1.x,mouse1.y,mouse1.leftButton,mouse1.midButton,mouse1.rightButton,mouse1.clicked_name,mouse1.started,mouse1.stopped,button1.started,button1.stopped,next1.started,next1.stopped,background.started,background.stopped,instruction2.started,instruction2.stopped,cue1img.started,cue1img.stopped,cue2img.started,cue2img.stopped,cue3img.started,cue3img.stopped,mouse2.x,mouse2.y,mouse2.leftButton,mouse2.midButton,mouse2.rightButton,mouse2.clicked_name,mouse2.started,mouse2.stopped,button2.started,button2.stopped,next2.started,next2.stopped,background_3.started,background_3.stopped,LossImg.started,LossImg.stopped,NeutralImg.started,NeutralImg.stopped,instruction4.started,instruction4.stopped,punishment.started,punishment.stopped,neutralresult.started,neutralresult.stopped,mouse4.x,mouse4.y,mouse4.leftButton,mouse4.midButton,mouse4.rightButton,mouse4.clicked_name,mouse4.started,mouse4.stopped,button4.started,button4.stopped,next4.started,next4.stopped,background_4.started,background_4.stopped,instruction5.started,instruction5.stopped,mouse5.x,mouse5.y,mouse5.leftButton,mouse5.midButton,mouse5.rightButton,mouse5.clicked_name,mouse5.started,mouse5.stopped,button5.started,button5.stopped,next5.started,next5.stopped,background_5.started,background_5.stopped,instruction6.started,instruction6.stopped,press_space.started,press_space.stopped,dont_press1.started,dont_press1.stopped,cue1img_2.started,cue1img_2.stopped,cue2img_2.started,cue2img_2.stopped,mouse6.x,mouse6.y,mouse6.leftButton,mouse6.midButton,mouse6.rightButton,mouse6.clicked_name,mouse6.started,mouse6.stopped,button6.started,button6.stopped,next6.started,next6.stopped,background_6.started,background_6.stopped,trialFix.started,trialFix.stopped,subj_choice_practice,practice_cue1.started,practice_cue1.stopped,practice_cue2.started,practice_cue2.stopped,touchResp.x,touchResp.y,touchResp.leftButton,touchResp.midButton,touchResp.rightButton,touchResp.started,touchResp.stopped,background_7.started,background_7.stopped,LossImg_2.started,LossImg_2.stopped,NeutralImg_2.started,NeutralImg_2.stopped,fishbite_sound.started,fishbite_sound.stopped,bubbles_sound.started,bubbles_sound.stopped,background_11.started,background_11.stopped,instruction7.started,instruction7.stopped,mouse7.x,mouse7.y,mouse7.leftButton,mouse7.midButton,mouse7.rightButton,mouse7.clicked_name,mouse7.started,mouse7.stopped,button7.started,button7.stopped,next7.started,next7.stopped,background_8.started,background_8.stopped,trialFix_2.started,trialFix_2.stopped,subj_choice,main_cue1.started,main_cue1.stopped,main_cue2.started,main_cue2.stopped,main_cue3.started,main_cue3.stopped,touchResp_2.x,touchResp_2.y,touchResp_2.leftButton,touchResp_2.midButton,touchResp_2.rightButton,touchResp_2.started,touchResp_2.stopped,background_9.started,background_9.stopped,LossImg_3.started,LossImg_3.stopped,NeutralImg_3.started,NeutralImg_3.stopped,fishbite_sound_2.started,fishbite_sound_2.stopped,bubbles_sound_2.started,bubbles_sound_2.stopped,participant,session,date,expName,psychopyVersion,frameRate,
,,,,,,,,,,,,,231.67419245801284,None,231.67419245801284,None,-0.007128309572301426,-0.2953156822810591,1,0,0,button1,0.009295833355281502,None,,,,,,,,,,,,,,,,,,,,,,,,,,,,,,,,,,,,,,,,,,,,,,,,,,,,,,,,,,,,,,,,,,,,,,,,,,,,,,,,,,,,,,,,,,,,,,,,,,,,,,,,,,,,,,,,,,,,,,,,,,,,,,,,,,,,,,,,,,,,,,,,,,,,,,,,,,,,,,,,,,001,2022_Apr_07_2134,goNogoTest,2021.2.3,None,
,,,,,,,,,,,,,,,,,,,,,,,,,231.67419245801284,None,231.67419245801284,None,245.66061904199887,None,245.66061904199887,None,245.66061904199887,None,245.66061904199887,None,245.66061904199887,None,-0.003054989816700611,-0.3910386965376782,1,0,0,button2,0.013041249650996178,None,,,,,,,,,,,,,,,,,,,,,,,,,,,,,,,,,,,,,,,,,,,,,,,,,,,,,,,,,,,,,,,,,,,,,,,,,,,,,,,,,,,,,,,,,,,,,,,,,,,,,,,,,,,,,,,,,,,,,,,,,,,,,,,,,,,,,,,,,,,,001,2022_Apr_07_2134,goNogoTest,2021.2.3,None,
,,,,,,,,,,,,,,,,,,,,,,,,,,,,,,,,,,,,,,,,,,,,,,,245.66061904199887,None,245.66061904199887,None,246.54363954201108,None,246.54363954201108,None,246.54363954201108,None,246.54363954201108,None,246.54363954201108,None,246.54363954201108,None,0.035641547861507125,-0.41140529531568226,1,0,0,button4,0.015023166692117229,None,,,,,,,,,,,,,,,,,,,,,,,,,,,,,,,,,,,,,,,,,,,,,,,,,,,,,,,,,,,,,,,,,,,,,,,,,,,,,,,,,,,,,,,,,,,,,,,,,,,,,,,,,,,,,,,,,,,,001,2022_Apr_07_2134,goNogoTest,2021.2.3,None,
,,,,,,,,,,,,,,,,,,,,,,,,,,,,,,,,,,,,,,,,,,,,,,,,,,,,,,,,,,,,,,,,,,,,,,,246.54363954201108,None,246.54363954201108,None,247.1583441249968,None,247.1583441249968,None,0.034623217922606926,-0.32077393075356414,1,0,0,button5,0.015799708664417267,None,,,,,,,,,,,,,,,,,,,,,,,,,,,,,,,,,,,,,,,,,,,,,,,,,,,,,,,,,,,,,,,,,,,,,,,,,,,,,,,,,,,,,,,,,,,,,,,,,,,,001,2022_Apr_07_2134,goNogoTest,2021.2.3,None,
,,,,,,,,,,,,,,,,,,,,,,,,,,,,,,,,,,,,,,,,,,,,,,,,,,,,,,,,,,,,,,,,,,,,,,,,,,,,,,,,,,,,,,,247.1583441249968,None,247.1583441249968,None,247.67764516701573,None,247.67764516701573,None,247.67764516701573,None,247.67764516701573,None,247.67764516701573,None,247.67764516701573,None,0.016293279022403257,-0.4164969450101833,1,0,0,button6,0.015131249674595892,None,,,,,,,,,,,,,,,,,,,,,,,,,,,,,,,,,,,,,,,,,,,,,,,,,,,,,,,,,,,,,,,,,,,,,,,,,,,,001,2022_Apr_07_2134,goNogoTest,2021.2.3,None,
0.0,1.0,0.0,1.0,1.0,0,0,0,7,,,,,,,,,,,,,,,,,,,,,,,,,,,,,,,,,,,,,,,,,,,,,,,,,,,,,,,,,,,,,,,,,,,,,,,,,,,,,,,,,,,,,,,,,,,,,,,,,,,,,,,247.67764516701573,None,247.67764516701573,None,248.4160847919993,None,248.4160847919993,249.91240283299703,NoGo,249.89800008299062,None,249.89800008299062,None,0.015274949083503055,-0.4164969450101833,0,0,0,1.5047243753215298,None,251.8704738749948,None,251.8704738749948,None,251.8704738749948,None,251.8108180836755,None,251.8108180836755,None,,,,,,,,,,,,,,,,,,,,,,,,,,,,,,,,,,,,,,,,,,,,,,001,2022_Apr_07_2134,goNogoTest,2021.2.3,None,
0.0,1.0,0.0,0.0,1.0,0,1,1,5,,,,,,,,,,,,,,,,,,,,,,,,,,,,,,,,,,,,,,,,,,,,,,,,,,,,,,,,,,,,,,,,,,,,,,,,,,,,,,,,,,,,,,,,,,,,,,,,,,,,,,,,,,,253.4011255830119,None,253.4011255830119,254.89172145799967,NoGo,254.87976512499154,None,254.87976512499154,None,0.015274949083503055,-0.4164969450101833,0,0,0,1.5030261666397564,None,256.8713940829912,None,256.8713940829912,None,256.8713940829912,None,256.8247687913322,None,256.8247687913322,None,,,,,,,,,,,,,,,,,,,,,,,,,,,,,,,,,,,,,,,,,,,,,,001,2022_Apr_07_2134,goNogoTest,2021.2.3,None,
1.0,0.0,0.0,0.0,0.0,0,2,2,0,,,,,,,,,,,,,,,,,,,,,,,,,,,,,,,,,,,,,,,,,,,,,,,,,,,,,,,,,,,,,,,,,,,,,,,,,,,,,,,,,,,,,,,,,,,,,,,,,,,,,,,,,,,258.4024110000173,None,258.4024110000173,259.8959577920032,NoGo,259.8807357920159,None,259.8807357920159,None,0.015274949083503055,-0.4164969450101833,0,0,0,1.5010281256400049,None,261.8622959170025,None,261.8622959170025,None,261.8622959170025,None,261.803559208671,None,261.803559208671,None,,,,,,,,,,,,,,,,,,,,,,,,,,,,,,,,,,,,,,,,,,,,,,001,2022_Apr_07_2134,goNogoTest,2021.2.3,None,
0.0,1.0,0.0,1.0,0.0,0,3,3,6,,,,,,,,,,,,,,,,,,,,,,,,,,,,,,,,,,,,,,,,,,,,,,,,,,,,,,,,,,,,,,,,,,,,,,,,,,,,,,,,,,,,,,,,,,,,,,,,,,,,,,,,,,,263.441013292002,None,263.441013292002,264.9330935830076,NoGo,264.9201670420007,None,264.9201670420007,None,0.015274949083503055,-0.4164969450101833,0,0,0,1.4994119156617671,None,266.8588281249977,None,266.8588281249977,None,266.8588281249977,None,266.8042428746742,None,266.8042428746742,None,,,,,,,,,,,,,,,,,,,,,,,,,,,,,,,,,,,,,,,,,,,,,,001,2022_Apr_07_2134,goNogoTest,2021.2.3,None,
0.0,1.0,0.0,1.0,0.0,0,4,4,9,,,,,,,,,,,,,,,,,,,,,,,,,,,,,,,,,,,,,,,,,,,,,,,,,,,,,,,,,,,,,,,,,,,,,,,,,,,,,,,,,,,,,,,,,,,,,,,,,,,,,,,,,,,268.4440894169966,None,268.4440894169966,269.935825958004,NoGo,269.9302459580067,None,269.9302459580067,None,0.015274949083503055,-0.4164969450101833,0,0,0,1.5053051256982144,None,271.86889020801755,None,271.86889020801755,None,271.86889020801755,None,271.8244479163336,None,271.8244479163336,None,,,,,,,,,,,,,,,,,,,,,,,,,,,,,,,,,,,,,,,,,,,,,,001,2022_Apr_07_2134,goNogoTest,2021.2.3,None,
1.0,0.0,0.0,0.0,1.0,0,5,5,3,,,,,,,,,,,,,,,,,,,,,,,,,,,,,,,,,,,,,,,,,,,,,,,,,,,,,,,,,,,,,,,,,,,,,,,,,,,,,,,,,,,,,,,,,,,,,,,,,,,,,,,,,,,273.45174908300396,None,273.45174908300396,274.940868708014,NoGo,274.93465404200833,None,274.93465404200833,None,0.015274949083503055,-0.4164969450101833,0,0,0,1.5024963746545836,None,276.87433525000233,None,276.87433525000233,None,276.87433525000233,None,276.8145379586824,None,276.8145379586824,None,,,,,,,,,,,,,,,,,,,,,,,,,,,,,,,,,,,,,,,,,,,,,,001,2022_Apr_07_2134,goNogoTest,2021.2.3,None,
1.0,0.0,0.0,0.0,1.0,0,6,6,1,,,,,,,,,,,,,,,,,,,,,,,,,,,,,,,,,,,,,,,,,,,,,,,,,,,,,,,,,,,,,,,,,,,,,,,,,,,,,,,,,,,,,,,,,,,,,,,,,,,,,,,,,,,278.39882237499114,None,278.39882237499114,279.8945106670144,NoGo,279.87942725000903,None,279.87942725000903,None,0.015274949083503055,-0.4164969450101833,0,0,0,1.5005374176544137,None,281.8643858330033,None,281.8643858330033,None,281.8643858330033,None,281.8078691666635,None,281.8078691666635,None,,,,,,,,,,,,,,,,,,,,,,,,,,,,,,,,,,,,,,,,,,,,,,001,2022_Apr_07_2134,goNogoTest,2021.2.3,None,
1.0,0.0,0.0,0.0,1.0,0,7,7,2,,,,,,,,,,,,,,,,,,,,,,,,,,,,,,,,,,,,,,,,,,,,,,,,,,,,,,,,,,,,,,,,,,,,,,,,,,,,,,,,,,,,,,,,,,,,,,,,,,,,,,,,,,,283.4480548330175,None,283.4480548330175,284.9476365830051,NoGo,284.9273987500055,None,284.9273987500055,None,0.015274949083503055,-0.4164969450101833,0,0,0,1.4996608756482601,None,286.86175437501515,None,286.86175437501515,None,286.86175437501515,None,286.8061636246605,None,286.8061636246605,None,,,,,,,,,,,,,,,,,,,,,,,,,,,,,,,,,,,,,,,,,,,,,,001,2022_Apr_07_2134,goNogoTest,2021.2.3,None,
0.0,1.0,0.0,0.0,0.0,0,8,8,8,,,,,,,,,,,,,,,,,,,,,,,,,,,,,,,,,,,,,,,,,,,,,,,,,,,,,,,,,,,,,,,,,,,,,,,,,,,,,,,,,,,,,,,,,,,,,,,,,,,,,,,,,,,288.44426325001405,None,288.44426325001405,289.9402618750173,NoGo,289.93507445801515,None,289.93507445801515,None,0.015274949083503055,-0.4164969450101833,0,0,0,1.5005167496856302,None,291.86405016700155,None,291.86405016700155,None,291.86405016700155,None,291.8072594166772,None,291.8072594166772,None,,,,,,,,,,,,,,,,,,,,,,,,,,,,,,,,,,,,,,,,,,,,,,001,2022_Apr_07_2134,goNogoTest,2021.2.3,None,
1.0,0.0,0.0,1.0,1.0,0,9,9,4,,,,,,,,,,,,,,,,,,,,,,,,,,,,,,,,,,,,,,,,,,,,,,,,,,,,,,,,,,,,,,,,,,,,,,,,,,,,,,,,,,,,,,,,,,,,,,,,,,,,,,,,,,,293.46442129201023,None,293.46442129201023,294.9595127920038,NoGo,294.95412783301435,None,294.95412783301435,None,0.015274949083503055,-0.4164969450101833,0,0,0,1.5023719166347291,None,296.85892066700035,None,296.85892066700035,None,296.85892066700035,None,296.805052166663,None,296.805052166663,None,,,,,,,,,,,,,,,,,,,,,,,,,,,,,,,,,,,,,,,,,,,,,,001,2022_Apr_07_2134,goNogoTest,2021.2.3,None,
,,,,,,,,,,,,,,,,,,,,,,,,,,,,,,,,,,,,,,,,,,,,,,,,,,,,,,,,,,,,,,,,,,,,,,,,,,,,,,,,,,,,,,,,,,,,,,,,,,,,,,,,,,,,,,,,,,,,,,,,,,,,,,,,,,,,,,,,,,,,,298.3424240000022,None,298.3424240000022,None,-0.0050916496945010185,-0.22708757637474541,1,0,0,button7,0.015836249658605084,None,,,,,,,,,,,,,,,,,,,,,,,,,,,,,,,,,,001,2022_Apr_07_2134,goNogoTest,2021.2.3,None,
0.0,0.0,1.0,1.0,0.0,,,,,0,0,0,69,,,,,,,,,,,,,,,,,,,,,,,,,,,,,,,,,,,,,,,,,,,,,,,,,,,,,,,,,,,,,,,,,,,,,,,,,,,,,,,,,,,,,,,,,,,,,,,,,,,,,,,,,,,,,,,,,,,,,,,,,,,,,,,,,,,,,,,,,,,,,298.3424240000022,None,298.3424240000022,None,314.5690761250153,None,314.5690761250153,316.06373383299797,Go,316.06373383299797,None,316.06373383299797,None,316.06373383299797,None,0.0,-0.23116089613034624,1,0,0,1.5032870420254767,None,317.475518457999,None,317.475518457999,None,317.475518457999,None,317.43028000032837,None,317.43028000032837,None,,001,2022_Apr_07_2134,goNogoTest,2021.2.3,None,
1.0,0.0,0.0,0.0,1.0,,,,,0,1,1,29,,,,,,,,,,,,,,,,,,,,,,,,,,,,,,,,,,,,,,,,,,,,,,,,,,,,,,,,,,,,,,,,,,,,,,,,,,,,,,,,,,,,,,,,,,,,,,,,,,,,,,,,,,,,,,,,,,,,,,,,,,,,,,,,,,,,,,,,,,,,,,,,,319.20262358299806,None,319.20262358299806,320.6996317919984,Go,320.69408237500465,None,320.69408237500465,None,320.69408237500465,None,0.0,-0.23217922606924643,1,0,0,1.5040942073392216,None,321.63578437501565,None,321.63578437501565,None,321.63578437501565,None,321.57671362467613,None,321.57671362467613,None,,001,2022_Apr_07_2134,goNogoTest,2021.2.3,None,
1.0,0.0,0.0,1.0,0.0,,,,,0,2,2,15,,,,,,,,,,,,,,,,,,,,,,,,,,,,,,,,,,,,,,,,,,,,,,,,,,,,,,,,,,,,,,,,,,,,,,,,,,,,,,,,,,,,,,,,,,,,,,,,,,,,,,,,,,,,,,,,,,,,,,,,,,,,,,,,,,,,,,,,,,,,,,,,,323.3638757079898,None,323.3638757079898,324.85993954201695,NoGo,324.8381977500103,326.8368084169924,324.8381977500103,326.8368084169924,324.8381977500103,326.8368084169924,0.0,-0.23217922606924643,0,0,0,1.501290334010264,3.4942280420218594,326.9225543749926,None,326.9225543749926,None,326.9225543749926,None,326.86441799966656,None,326.86441799966656,None,,001,2022_Apr_07_2134,goNogoTest,2021.2.3,None,
1.0,0.0,0.0,0.0,1.0,,,,,0,3,3,16,,,,,,,,,,,,,,,,,,,,,,,,,,,,,,,,,,,,,,,,,,,,,,,,,,,,,,,,,,,,,,,,,,,,,,,,,,,,,,,,,,,,,,,,,,,,,,,,,,,,,,,,,,,,,,,,,,,,,,,,,,,,,,,,,,,,,,,,,,,,,,,,,328.5938982499938,None,328.5938982499938,330.09248583301087,Go,330.09248583301087,None,330.09248583301087,None,330.09248583301087,None,0.0,-0.23217922606924643,1,0,0,1.5057563333248254,None,331.7255474170088,None,331.7255474170088,None,331.7255474170088,None,331.66795083365673,None,331.66795083365673,None,,001,2022_Apr_07_2134,goNogoTest,2021.2.3,None,
0.0,0.0,1.0,0.0,1.0,,,,,0,4,4,80,,,,,,,,,,,,,,,,,,,,,,,,,,,,,,,,,,,,,,,,,,,,,,,,,,,,,,,,,,,,,,,,,,,,,,,,,,,,,,,,,,,,,,,,,,,,,,,,,,,,,,,,,,,,,,,,,,,,,,,,,,,,,,,,,,,,,,,,,,,,,,,,,333.4107172919903,None,333.4107172919903,334.90707429201575,Go,334.90209283301374,None,334.90209283301374,None,334.90209283301374,None,-0.007128309572301426,-0.23421588594704684,1,0,0,1.5012692089949269,None,336.4544312499929,None,336.4544312499929,None,336.4544312499929,None,336.3960750836743,None,336.3960750836743,None,,001,2022_Apr_07_2134,goNogoTest,2021.2.3,None,
0.0,1.0,0.0,0.0,1.0,,,,,0,5,5,59,,,,,,,,,,,,,,,,,,,,,,,,,,,,,,,,,,,,,,,,,,,,,,,,,,,,,,,,,,,,,,,,,,,,,,,,,,,,,,,,,,,,,,,,,,,,,,,,,,,,,,,,,,,,,,,,,,,,,,,,,,,,,,,,,,,,,,,,,,,,,,,,,338.12694616700173,None,338.12694616700173,339.62016950000543,Go,339.6149785830057,None,339.6149785830057,None,339.6149785830057,None,-0.006109979633401222,-0.23421588594704684,1,0,0,1.502340875333175,None,340.95486900000833,None,340.95486900000833,None,340.95486900000833,None,340.8949870836843,None,340.8949870836843,None,,001,2022_Apr_07_2134,goNogoTest,2021.2.3,None,
0.0,0.0,1.0,0.0,0.0,,,,,0,6,6,76,,,,,,,,,,,,,,,,,,,,,,,,,,,,,,,,,,,,,,,,,,,,,,,,,,,,,,,,,,,,,,,,,,,,,,,,,,,,,,,,,,,,,,,,,,,,,,,,,,,,,,,,,,,,,,,,,,,,,,,,,,,,,,,,,,,,,,,,,,,,,,,,,342.68514362501446,None,342.68514362501446,344.181344874989,NoGo,344.1584493330156,346.1520782079897,344.1584493330156,346.1520782079897,344.1584493330156,346.1520782079897,-0.006109979633401222,-0.23421588594704684,0,0,0,1.5023778330069035,3.498749416001374,346.24492641701363,None,346.24492641701363,None,346.24492641701363,None,346.1862767086752,None,346.1862767086752,None,,001,2022_Apr_07_2134,goNogoTest,2021.2.3,None,
1.0,0.0,0.0,0.0,1.0,,,,,0,7,7,26,,,,,,,,,,,,,,,,,,,,,,,,,,,,,,,,,,,,,,,,,,,,,,,,,,,,,,,,,,,,,,,,,,,,,,,,,,,,,,,,,,,,,,,,,,,,,,,,,,,,,,,,,,,,,,,,,,,,,,,,,,,,,,,,,,,,,,,,,,,,,,,,,347.9163701249927,None,347.9163701249927,349.4143810000096,NoGo,349.40771570801735,351.4054103750095,349.40771570801735,351.4054103750095,349.40771570801735,351.4054103750095,0.031568228105906315,-0.2780040733197556,0,0,0,1.499411124328617,3.4892056663229596,351.48282729199855,None,351.48282729199855,None,351.48282729199855,None,351.4220770416762,None,351.4220770416762,None,,001,2022_Apr_07_2134,goNogoTest,2021.2.3,None,
0.0,0.0,1.0,0.0,1.0,,,,,0,8,8,88,,,,,,,,,,,,,,,,,,,,,,,,,,,,,,,,,,,,,,,,,,,,,,,,,,,,,,,,,,,,,,,,,,,,,,,,,,,,,,,,,,,,,,,,,,,,,,,,,,,,,,,,,,,,,,,,,,,,,,,,,,,,,,,,,,,,,,,,,,,,,,,,,353.16465774999233,None,353.16465774999233,354.65745737499674,Go,354.65204958300455,None,354.65204958300455,None,354.65204958300455,None,-0.019348268839103868,-0.21079429735234215,1,0,0,1.499449374328833,None,355.08751537499484,None,355.08751537499484,None,355.08751537499484,None,355.0303256666559,None,355.0303256666559,None,,001,2022_Apr_07_2134,goNogoTest,2021.2.3,None,
0.0,0.0,1.0,0.0,0.0,,,,,0,9,9,60,,,,,,,,,,,,,,,,,,,,,,,,,,,,,,,,,,,,,,,,,,,,,,,,,,,,,,,,,,,,,,,,,,,,,,,,,,,,,,,,,,,,,,,,,,,,,,,,,,,,,,,,,,,,,,,,,,,,,,,,,,,,,,,,,,,,,,,,,,,,,,,,,356.7729906250024,None,356.7729906250024,358.26971183301066,Go,358.2479677920055,None,358.2479677920055,None,358.2479677920055,None,-0.019348268839103868,-0.21181262729124237,1,0,0,1.5025205430283677,None,358.73838925000746,None,358.73838925000746,None,358.73838925000746,None,358.6793918746737,None,358.6793918746737,None,,001,2022_Apr_07_2134,goNogoTest,2021.2.3,None,
0.0,1.0,0.0,1.0,0.0,,,,,0,10,10,43,,,,,,,,,,,,,,,,,,,,,,,,,,,,,,,,,,,,,,,,,,,,,,,,,,,,,,,,,,,,,,,,,,,,,,,,,,,,,,,,,,,,,,,,,,,,,,,,,,,,,,,,,,,,,,,,,,,,,,,,,,,,,,,,,,,,,,,,,,,,,,,,,360.41275229200255,None,360.41275229200255,361.90679595799884,Go,361.8972229170031,None,361.8972229170031,None,361.8972229170031,None,-0.04480651731160896,-0.18329938900203666,1,0,0,1.5020283343328629,None,363.1619299580052,None,363.1619299580052,None,363.1619299580052,None,363.1041604996756,None,363.1041604996756,None,,001,2022_Apr_07_2134,goNogoTest,2021.2.3,None,
0.0,1.0,0.0,1.0,0.0,,,,,0,11,11,42,,,,,,,,,,,,,,,,,,,,,,,,,,,,,,,,,,,,,,,,,,,,,,,,,,,,,,,,,,,,,,,,,,,,,,,,,,,,,,,,,,,,,,,,,,,,,,,,,,,,,,,,,,,,,,,,,,,,,,,,,,,,,,,,,,,,,,,,,,,,,,,,,364.85064170800615,None,364.85064170800615,366.34809795799083,NoGo,366.3429023750068,368.33676908299094,366.3429023750068,368.33676908299094,366.3429023750068,368.33676908299094,-0.04480651731160896,-0.18533604887983707,0,0,0,1.4998577083169948,3.4891155002987944,368.41190295800334,None,368.41190295800334,None,368.41190295800334,None,368.3534357496576,None,368.3534357496576,None,,001,2022_Apr_07_2134,goNogoTest,2021.2.3,None,
1.0,0.0,0.0,0.0,1.0,,,,,0,12,12,25,,,,,,,,,,,,,,,,,,,,,,,,,,,,,,,,,,,,,,,,,,,,,,,,,,,,,,,,,,,,,,,,,,,,,,,,,,,,,,,,,,,,,,,,,,,,,,,,,,,,,,,,,,,,,,,,,,,,,,,,,,,,,,,,,,,,,,,,,,,,,,,,,370.0960000829946,373.5878354579909,370.0960000829946,371.5984661249968,NoGo,371.5984661249968,373.5878354579909,371.5984661249968,373.5878354579909,371.5984661249968,373.5878354579909,-0.04989816700610998,-0.18228105906313646,0,0,0,1.50953016729909,3.49881608330179,373.66338229199755,None,373.66338229199755,None,373.66338229199755,None,373.60450212465753,None,373.60450212465753,None,,001,2022_Apr_07_2134,goNogoTest,2021.2.3,None,
1.0,0.0,0.0,1.0,1.0,,,,,0,13,13,0,,,,,,,,,,,,,,,,,,,,,,,,,,,,,,,,,,,,,,,,,,,,,,,,,,,,,,,,,,,,,,,,,,,,,,,,,,,,,,,,,,,,,,,,,,,,,,,,,,,,,,,,,,,,,,,,,,,,,,,,,,,,,,,,,,,,,,,,,,,,,,,,,375.344915958005,None,375.344915958005,376.84596487501403,Go,376.84596487501403,None,376.84596487501403,None,376.84596487501403,None,-0.04989816700610998,-0.18024439918533605,1,0,0,1.5073984583141282,None,377.995841291995,None,377.995841291995,None,377.995841291995,None,377.9372481246576,None,377.9372481246576,None,,001,2022_Apr_07_2134,goNogoTest,2021.2.3,None,
0.0,1.0,0.0,1.0,0.0,,,,,0,14,14,30,,,,,,,,,,,,,,,,,,,,,,,,,,,,,,,,,,,,,,,,,,,,,,,,,,,,,,,,,,,,,,,,,,,,,,,,,,,,,,,,,,,,,,,,,,,,,,,,,,,,,,,,,,,,,,,,,,,,,,,,,,,,,,,,,,,,,,,,,,,,,,,,,379.717882041994,None,379.717882041994,381.2091759580071,Go,381.1911228749959,None,381.1911228749959,None,381.1911228749959,None,-0.04989816700610998,-0.18024439918533605,1,0,0,1.5024947079946287,None,381.5269595000136,None,381.5269595000136,None,381.5269595000136,None,381.46860858367677,None,381.46860858367677,None,,001,2022_Apr_07_2134,goNogoTest,2021.2.3,None,
0.0,1.0,0.0,1.0,0.0,,,,,0,15,15,48,,,,,,,,,,,,,,,,,,,,,,,,,,,,,,,,,,,,,,,,,,,,,,,,,,,,,,,,,,,,,,,,,,,,,,,,,,,,,,,,,,,,,,,,,,,,,,,,,,,,,,,,,,,,,,,,,,,,,,,,,,,,,,,,,,,,,,,,,,,,,,,,,383.2538740829914,386.74723395801266,383.2538740829914,384.7496510420169,NoGo,384.7444589170045,386.73779237500275,384.7444589170045,386.73779237500275,384.7444589170045,386.73779237500275,-0.048879837067209775,-0.18126272912423624,0,0,0,1.5036393332993612,3.501207125314977,386.81946425000206,None,386.81946425000206,None,386.81946425000206,None,386.7639006246793,None,386.7639006246793,None,,001,2022_Apr_07_2134,goNogoTest,2021.2.3,None,
0.0,0.0,1.0,1.0,0.0,,,,,0,16,16,79,,,,,,,,,,,,,,,,,,,,,,,,,,,,,,,,,,,,,,,,,,,,,,,,,,,,,,,,,,,,,,,,,,,,,,,,,,,,,,,,,,,,,,,,,,,,,,,,,,,,,,,,,,,,,,,,,,,,,,,,,,,,,,,,,,,,,,,,,,,,,,,,,388.5413996250136,None,388.5413996250136,390.0370280420175,Go,390.03194229200017,None,390.03194229200017,None,390.03194229200017,None,-0.045824847250509164,-0.17209775967413443,1,0,0,1.4997165413224138,None,391.7125829170109,None,391.7125829170109,None,391.7125829170109,None,391.6542549586777,None,391.6542549586777,None,,001,2022_Apr_07_2134,goNogoTest,2021.2.3,None,
1.0,0.0,0.0,0.0,0.0,,,,,0,17,17,6,,,,,,,,,,,,,,,,,,,,,,,,,,,,,,,,,,,,,,,,,,,,,,,,,,,,,,,,,,,,,,,,,,,,,,,,,,,,,,,,,,,,,,,,,,,,,,,,,,,,,,,,,,,,,,,,,,,,,,,,,,,,,,,,,,,,,,,,,,,,,,,,,393.4353142080072,396.9209980420128,393.4353142080072,394.92916183301713,NoGo,394.92416875000345,396.9177910829894,394.92416875000345,396.9177910829894,394.92416875000345,396.9177910829894,-0.045824847250509164,-0.17209775967413443,0,0,0,1.5017447083082516,3.5085197082953528,397.01659612500225,None,397.01659612500225,None,397.01659612500225,None,396.9692465833291,None,396.9692465833291,None,,001,2022_Apr_07_2134,goNogoTest,2021.2.3,None,
1.0,0.0,0.0,0.0,1.0,,,,,0,18,18,12,,,,,,,,,,,,,,,,,,,,,,,,,,,,,,,,,,,,,,,,,,,,,,,,,,,,,,,,,,,,,,,,,,,,,,,,,,,,,,,,,,,,,,,,,,,,,,,,,,,,,,,,,,,,,,,,,,,,,,,,,,,,,,,,,,,,,,,,,,,,,,,,,398.7458016250166,None,398.7458016250166,400.2422991670028,NoGo,400.2335967500112,402.2242717920162,400.2335967500112,402.2242717920162,400.2335967500112,402.2242717920162,-0.045824847250509164,-0.17209775967413443,0,0,0,1.5042946253088303,3.4969102913164534,402.30752208299236,None,402.30752208299236,None,402.30752208299236,None,402.251603374669,None,402.251603374669,None,,001,2022_Apr_07_2134,goNogoTest,2021.2.3,None,
0.0,0.0,1.0,0.0,0.0,,,,,0,19,19,71,,,,,,,,,,,,,,,,,,,,,,,,,,,,,,,,,,,,,,,,,,,,,,,,,,,,,,,,,,,,,,,,,,,,,,,,,,,,,,,,,,,,,,,,,,,,,,,,,,,,,,,,,,,,,,,,,,,,,,,,,,,,,,,,,,,,,,,,,,,,,,,,,403.9859717079962,None,403.9859717079962,405.48291058299947,Go,405.4759029580164,None,405.4759029580164,None,405.4759029580164,None,-0.045824847250509164,-0.17209775967413443,1,0,0,1.5035301662865095,None,406.262676207989,None,406.262676207989,None,406.262676207989,None,406.20464670868046,None,406.20464670868046,None,,001,2022_Apr_07_2134,goNogoTest,2021.2.3,None,
0.0,0.0,1.0,0.0,1.0,,,,,0,20,20,85,,,,,,,,,,,,,,,,,,,,,,,,,,,,,,,,,,,,,,,,,,,,,,,,,,,,,,,,,,,,,,,,,,,,,,,,,,,,,,,,,,,,,,,,,,,,,,,,,,,,,,,,,,,,,,,,,,,,,,,,,,,,,,,,,,,,,,,,,,,,,,,,,407.9867552079959,None,407.9867552079959,409.4977419170027,Go,409.4925819170021,None,409.4925819170021,None,409.4925819170021,None,-0.045824847250509164,-0.17209775967413443,1,0,0,1.5145340003073215,None,410.4441569999908,None,410.4441569999908,None,410.4441569999908,None,410.3970397503367,None,410.3970397503367,None,,001,2022_Apr_07_2134,goNogoTest,2021.2.3,None,
0.0,0.0,1.0,0.0,0.0,,,,,0,21,21,67,,,,,,,,,,,,,,,,,,,,,,,,,,,,,,,,,,,,,,,,,,,,,,,,,,,,,,,,,,,,,,,,,,,,,,,,,,,,,,,,,,,,,,,,,,,,,,,,,,,,,,,,,,,,,,,,,,,,,,,,,,,,,,,,,,,,,,,,,,,,,,,,,412.17060833299183,None,412.17060833299183,413.66642958301236,Go,413.66149204201065,None,413.66149204201065,None,413.66149204201065,None,-0.045824847250509164,-0.17209775967413443,1,0,0,1.5023617073020432,None,415.2927888749982,None,415.2927888749982,None,415.2927888749982,None,415.23192516668155,None,415.23192516668155,None,,001,2022_Apr_07_2134,goNogoTest,2021.2.3,None,
0.0,1.0,0.0,1.0,0.0,,,,,0,22,22,34,,,,,,,,,,,,,,,,,,,,,,,,,,,,,,,,,,,,,,,,,,,,,,,,,,,,,,,,,,,,,,,,,,,,,,,,,,,,,,,,,,,,,,,,,,,,,,,,,,,,,,,,,,,,,,,,,,,,,,,,,,,,,,,,,,,,,,,,,,,,,,,,,416.9732634999964,None,416.9732634999964,418.46785700001055,NoGo,418.4519588749972,420.44337687501684,418.4519588749972,420.44337687501684,418.4519588749972,420.44337687501684,-0.08044806517311609,-0.19042769857433808,0,0,0,1.5038989580061752,3.497333833016455,420.53986508300295,None,420.53986508300295,None,420.53986508300295,None,420.49380716632777,None,420.49380716632777,None,,001,2022_Apr_07_2134,goNogoTest,2021.2.3,None,
0.0,1.0,0.0,1.0,0.0,,,,,0,23,23,37,,,,,,,,,,,,,,,,,,,,,,,,,,,,,,,,,,,,,,,,,,,,,,,,,,,,,,,,,,,,,,,,,,,,,,,,,,,,,,,,,,,,,,,,,,,,,,,,,,,,,,,,,,,,,,,,,,,,,,,,,,,,,,,,,,,,,,,,,,,,,,,,,422.2624377920001,None,422.2624377920001,423.76167025000905,NoGo,423.75378262499,425.7493581669987,423.75378262499,425.7493581669987,423.75378262499,425.7493581669987,-0.08044806517311609,-0.19042769857433808,0,0,0,1.506228750309674,3.4939439592999406,425.82582012499915,None,425.82582012499915,None,425.82582012499915,None,425.76602483366537,None,425.76602483366537,None,,001,2022_Apr_07_2134,goNogoTest,2021.2.3,None,
0.0,1.0,0.0,1.0,0.0,,,,,0,24,24,56,,,,,,,,,,,,,,,,,,,,,,,,,,,,,,,,,,,,,,,,,,,,,,,,,,,,,,,,,,,,,,,,,,,,,,,,,,,,,,,,,,,,,,,,,,,,,,,,,,,,,,,,,,,,,,,,,,,,,,,,,,,,,,,,,,,,,,,,,,,,,,,,,427.5475427079946,None,427.5475427079946,429.04478945801384,NoGo,429.03615441700094,431.0444343750132,429.03615441700094,431.0444343750132,429.03615441700094,431.0444343750132,-0.08044806517311609,-0.19042769857433808,0,0,0,1.5031397083366755,3.5028050423425157,431.12253120800597,None,431.12253120800597,None,431.12253120800597,None,431.0777677083465,None,431.0777677083465,None,,001,2022_Apr_07_2134,goNogoTest,2021.2.3,None,
0.0,1.0,0.0,0.0,0.0,,,,,0,25,25,31,,,,,,,,,,,,,,,,,,,,,,,,,,,,,,,,,,,,,,,,,,,,,,,,,,,,,,,,,,,,,,,,,,,,,,,,,,,,,,,,,,,,,,,,,,,,,,,,,,,,,,,,,,,,,,,,,,,,,,,,,,,,,,,,,,,,,,,,,,,,,,,,,432.84216583298985,None,432.84216583298985,434.34027433299343,NoGo,434.3227942920057,436.31911650000256,434.3227942920057,436.31911650000256,434.3227942920057,436.31911650000256,-0.08044806517311609,-0.19042769857433808,0,0,0,1.5059619159728754,3.499329290993046,436.40608687500935,None,436.40608687500935,None,436.40608687500935,None,436.35937254134524,None,436.35937254134524,None,,001,2022_Apr_07_2134,goNogoTest,2021.2.3,None,
0.0,0.0,1.0,0.0,1.0,,,,,0,26,26,75,,,,,,,,,,,,,,,,,,,,,,,,,,,,,,,,,,,,,,,,,,,,,,,,,,,,,,,,,,,,,,,,,,,,,,,,,,,,,,,,,,,,,,,,,,,,,,,,,,,,,,,,,,,,,,,,,,,,,,,,,,,,,,,,,,,,,,,,,,,,,,,,,438.1410099999921,None,438.1410099999921,439.63960816699546,Go,439.6221732920094,None,439.6221732920094,None,439.6221732920094,None,-0.08044806517311609,-0.19042769857433808,1,0,0,1.50745950001874,None,440.7124081669899,None,440.7124081669899,None,440.7124081669899,None,440.65213308367333,None,440.65213308367333,None,,001,2022_Apr_07_2134,goNogoTest,2021.2.3,None,
1.0,0.0,0.0,0.0,0.0,,,,,0,27,27,24,,,,,,,,,,,,,,,,,,,,,,,,,,,,,,,,,,,,,,,,,,,,,,,,,,,,,,,,,,,,,,,,,,,,,,,,,,,,,,,,,,,,,,,,,,,,,,,,,,,,,,,,,,,,,,,,,,,,,,,,,,,,,,,,,,,,,,,,,,,,,,,,,442.44215512499795,None,442.44215512499795,443.93958137501613,Go,443.92225720800343,None,443.92225720800343,None,443.92225720800343,None,-0.08044806517311609,-0.19042769857433808,1,0,0,1.5086175000178628,None,445.6078903750167,None,445.6078903750167,None,445.6078903750167,None,445.551233083683,None,445.551233083683,None,,001,2022_Apr_07_2134,goNogoTest,2021.2.3,None,
0.0,1.0,0.0,1.0,0.0,,,,,0,28,28,49,,,,,,,,,,,,,,,,,,,,,,,,,,,,,,,,,,,,,,,,,,,,,,,,,,,,,,,,,,,,,,,,,,,,,,,,,,,,,,,,,,,,,,,,,,,,,,,,,,,,,,,,,,,,,,,,,,,,,,,,,,,,,,,,,,,,,,,,,,,,,,,,,447.3303310830088,450.81665762499324,447.3303310830088,448.8296628330136,NoGo,448.8175868749968,450.81365470800665,448.8175868749968,450.81365470800665,448.8175868749968,450.81365470800665,-0.08044806517311609,-0.1894093686354379,0,0,0,1.5084582083509304,3.5007608753512613,450.8960210829973,None,450.8960210829973,None,450.8960210829973,None,450.83864524966725,None,450.83864524966725,None,,001,2022_Apr_07_2134,goNogoTest,2021.2.3,None,
1.0,0.0,0.0,0.0,1.0,,,,,0,29,29,8,,,,,,,,,,,,,,,,,,,,,,,,,,,,,,,,,,,,,,,,,,,,,,,,,,,,,,,,,,,,,,,,,,,,,,,,,,,,,,,,,,,,,,,,,,,,,,,,,,,,,,,,,,,,,,,,,,,,,,,,,,,,,,,,,,,,,,,,,,,,,,,,,452.57477025000844,None,452.57477025000844,454.0708672920009,Go,454.04537062501186,None,454.04537062501186,None,454.04537062501186,None,-0.08044806517311609,-0.18839103869653767,1,0,0,1.5006871249934193,None,454.84566616700613,None,454.84566616700613,None,454.84566616700613,None,454.8014976253403,None,454.8014976253403,None,,001,2022_Apr_07_2134,goNogoTest,2021.2.3,None,
0.0,0.0,1.0,1.0,1.0,,,,,0,30,30,74,,,,,,,,,,,,,,,,,,,,,,,,,,,,,,,,,,,,,,,,,,,,,,,,,,,,,,,,,,,,,,,,,,,,,,,,,,,,,,,,,,,,,,,,,,,,,,,,,,,,,,,,,,,,,,,,,,,,,,,,,,,,,,,,,,,,,,,,,,,,,,,,,456.5187839580176,None,456.5187839580176,458.0164809169946,Go,458.00841700000456,None,458.00841700000456,None,458.00841700000456,None,-0.08044806517311609,-0.18839103869653767,1,0,0,1.505842208309332,None,458.9728842920158,None,458.9728842920158,None,458.9728842920158,None,458.9266862913287,None,458.9266862913287,None,,001,2022_Apr_07_2134,goNogoTest,2021.2.3,None,
1.0,0.0,0.0,1.0,1.0,,,,,0,31,31,23,,,,,,,,,,,,,,,,,,,,,,,,,,,,,,,,,,,,,,,,,,,,,,,,,,,,,,,,,,,,,,,,,,,,,,,,,,,,,,,,,,,,,,,,,,,,,,,,,,,,,,,,,,,,,,,,,,,,,,,,,,,,,,,,,,,,,,,,,,,,,,,,,460.6991034169914,None,460.6991034169914,462.19044383300934,Go,462.1840919580136,None,462.1840919580136,None,462.1840919580136,None,-0.08044806517311609,-0.18839103869653767,1,0,0,1.4991182503290474,None,463.10485483301454,None,463.10485483301454,None,463.10485483301454,None,463.0465749586622,None,463.0465749586622,None,,001,2022_Apr_07_2134,goNogoTest,2021.2.3,None,
0.0,1.0,0.0,1.0,1.0,,,,,0,32,32,47,,,,,,,,,,,,,,,,,,,,,,,,,,,,,,,,,,,,,,,,,,,,,,,,,,,,,,,,,,,,,,,,,,,,,,,,,,,,,,,,,,,,,,,,,,,,,,,,,,,,,,,,,,,,,,,,,,,,,,,,,,,,,,,,,,,,,,,,,,,,,,,,,464.83220937501756,None,464.83220937501756,466.32603387499694,NoGo,466.31733995801187,468.31493816699367,466.31733995801187,468.31493816699367,466.31733995801187,468.31493816699367,-0.08044806517311609,-0.18839103869653767,0,0,0,1.5012147503439337,3.490333958325209,468.39105387500604,None,468.39105387500604,None,468.39105387500604,None,468.3316048336603,None,468.3316048336603,None,,001,2022_Apr_07_2134,goNogoTest,2021.2.3,None,
0.0,0.0,1.0,1.0,0.0,,,,,0,33,33,87,,,,,,,,,,,,,,,,,,,,,,,,,,,,,,,,,,,,,,,,,,,,,,,,,,,,,,,,,,,,,,,,,,,,,,,,,,,,,,,,,,,,,,,,,,,,,,,,,,,,,,,,,,,,,,,,,,,,,,,,,,,,,,,,,,,,,,,,,,,,,,,,,470.06221183299203,None,470.06221183299203,471.5551504580071,Go,471.5551504580071,None,471.5551504580071,None,471.5551504580071,None,-0.08044806517311609,-0.18329938900203666,1,0,0,1.5003274163173046,None,472.57036000001244,None,472.57036000001244,None,472.57036000001244,None,472.5132718336574,None,472.5132718336574,None,,001,2022_Apr_07_2134,goNogoTest,2021.2.3,None,
1.0,0.0,0.0,0.0,1.0,,,,,0,34,34,7,,,,,,,,,,,,,,,,,,,,,,,,,,,,,,,,,,,,,,,,,,,,,,,,,,,,,,,,,,,,,,,,,,,,,,,,,,,,,,,,,,,,,,,,,,,,,,,,,,,,,,,,,,,,,,,,,,,,,,,,,,,,,,,,,,,,,,,,,,,,,,,,,474.2633999999962,None,474.2633999999962,475.7678058750171,NoGo,475.7678058750171,None,475.7678058750171,None,475.7678058750171,None,-0.08044806517311609,-0.18329938900203666,0,0,0,1.5015900823054835,3.5016784993058536,477.8345696670003,None,477.8345696670003,None,477.8345696670003,None,477.7919282083244,None,477.7919282083244,None,,001,2022_Apr_07_2134,goNogoTest,2021.2.3,None,
0.0,0.0,1.0,1.0,0.0,,,,,0,35,35,65,,,,,,,,,,,,,,,,,,,,,,,,,,,,,,,,,,,,,,,,,,,,,,,,,,,,,,,,,,,,,,,,,,,,,,,,,,,,,,,,,,,,,,,,,,,,,,,,,,,,,,,,,,,,,,,,,,,,,,,,,,,,,,,,,,,,,,,,,,,,,,,,,479.52044774999376,None,479.52044774999376,481.01475762500195,Go,480.9958400829928,None,480.9958400829928,None,480.9958400829928,None,-0.08044806517311609,-0.18329938900203666,1,0,0,1.505129751021741,None,482.07461737500853,None,482.07461737500853,None,482.07461737500853,None,482.0154827086701,None,482.0154827086701,None,,001,2022_Apr_07_2134,goNogoTest,2021.2.3,None,
1.0,0.0,0.0,0.0,1.0,,,,,0,36,36,5,,,,,,,,,,,,,,,,,,,,,,,,,,,,,,,,,,,,,,,,,,,,,,,,,,,,,,,,,,,,,,,,,,,,,,,,,,,,,,,,,,,,,,,,,,,,,,,,,,,,,,,,,,,,,,,,,,,,,,,,,,,,,,,,,,,,,,,,,,,,,,,,,483.74609220799175,None,483.74609220799175,485.240157207998,Go,485.23441162501695,None,485.23441162501695,None,485.23441162501695,None,-0.08044806517311609,-0.18329938900203666,1,0,0,1.501567208324559,None,486.35980808301247,None,486.35980808301247,None,486.35980808301247,None,486.299352583683,None,486.299352583683,None,,001,2022_Apr_07_2134,goNogoTest,2021.2.3,None,
1.0,0.0,0.0,0.0,0.0,,,,,0,37,37,28,,,,,,,,,,,,,,,,,,,,,,,,,,,,,,,,,,,,,,,,,,,,,,,,,,,,,,,,,,,,,,,,,,,,,,,,,,,,,,,,,,,,,,,,,,,,,,,,,,,,,,,,,,,,,,,,,,,,,,,,,,,,,,,,,,,,,,,,,,,,,,,,,488.0400578750123,None,488.0400578750123,489.5356633749907,Go,489.5356633749907,None,489.5356633749907,None,489.5356633749907,None,-0.08044806517311609,-0.18329938900203666,1,0,0,1.5026030423177872,None,490.0660417920153,None,490.0660417920153,None,490.0660417920153,None,490.00918395867143,None,490.00918395867143,None,,001,2022_Apr_07_2134,goNogoTest,2021.2.3,None,
0.0,0.0,1.0,1.0,1.0,,,,,0,38,38,82,,,,,,,,,,,,,,,,,,,,,,,,,,,,,,,,,,,,,,,,,,,,,,,,,,,,,,,,,,,,,,,,,,,,,,,,,,,,,,,,,,,,,,,,,,,,,,,,,,,,,,,,,,,,,,,,,,,,,,,,,,,,,,,,,,,,,,,,,,,,,,,,,491.75852529201075,None,491.75852529201075,493.2470739580167,Go,493.2349122920132,None,493.2349122920132,None,493.2349122920132,None,-0.08044806517311609,-0.18329938900203666,1,0,0,1.5032033340248745,None,493.8782861669897,None,493.8782861669897,None,493.8782861669897,None,493.83041529134107,None,493.83041529134107,None,,001,2022_Apr_07_2134,goNogoTest,2021.2.3,None,
0.0,0.0,1.0,1.0,0.0,,,,,0,39,39,89,,,,,,,,,,,,,,,,,,,,,,,,,,,,,,,,,,,,,,,,,,,,,,,,,,,,,,,,,,,,,,,,,,,,,,,,,,,,,,,,,,,,,,,,,,,,,,,,,,,,,,,,,,,,,,,,,,,,,,,,,,,,,,,,,,,,,,,,,,,,,,,,,495.5599594170053,499.0458927919972,495.5599594170053,497.05363866701373,NoGo,497.0436734580144,499.0426589999988,497.0436734580144,499.0426589999988,497.0436734580144,499.0426589999988,-0.07331975560081466,-0.18431771894093688,0,0,0,1.5019839993328787,3.4942406243353616,499.1262984170171,None,499.1262984170171,None,499.1262984170171,None,499.0792261253305,None,499.0792261253305,None,,001,2022_Apr_07_2134,goNogoTest,2021.2.3,None,
1.0,0.0,0.0,0.0,1.0,,,,,0,40,40,27,,,,,,,,,,,,,,,,,,,,,,,,,,,,,,,,,,,,,,,,,,,,,,,,,,,,,,,,,,,,,,,,,,,,,,,,,,,,,,,,,,,,,,,,,,,,,,,,,,,,,,,,,,,,,,,,,,,,,,,,,,,,,,,,,,,,,,,,,,,,,,,,,500.82170975001645,None,500.82170975001645,502.3152927499905,Go,502.2970167500025,None,502.2970167500025,None,502.2970167500025,None,-0.07535641547861507,-0.17718940936863545,1,0,0,1.4999236250005197,None,503.3731119580043,None,503.3731119580043,None,503.3731119580043,None,503.31522170867925,None,503.31522170867925,None,,001,2022_Apr_07_2134,goNogoTest,2021.2.3,None,
0.0,1.0,0.0,1.0,0.0,,,,,0,41,41,40,,,,,,,,,,,,,,,,,,,,,,,,,,,,,,,,,,,,,,,,,,,,,,,,,,,,,,,,,,,,,,,,,,,,,,,,,,,,,,,,,,,,,,,,,,,,,,,,,,,,,,,,,,,,,,,,,,,,,,,,,,,,,,,,,,,,,,,,,,,,,,,,,505.0504636669939,None,505.0504636669939,506.54634233299294,NoGo,506.5241746669926,508.5113792080083,506.5241746669926,508.5113792080083,506.5241746669926,508.5113792080083,-0.07128309572301425,-0.17006109979633402,0,0,0,1.499861582997255,3.4936787920014467,508.61200787499547,None,508.61200787499547,None,508.61200787499547,None,508.55782470867075,None,508.55782470867075,None,,001,2022_Apr_07_2134,goNogoTest,2021.2.3,None,
0.0,1.0,0.0,1.0,0.0,,,,,0,42,42,55,,,,,,,,,,,,,,,,,,,,,,,,,,,,,,,,,,,,,,,,,,,,,,,,,,,,,,,,,,,,,,,,,,,,,,,,,,,,,,,,,,,,,,,,,,,,,,,,,,,,,,,,,,,,,,,,,,,,,,,,,,,,,,,,,,,,,,,,,,,,,,,,,510.34191383299185,None,510.34191383299185,511.8397985830088,NoGo,511.83446383301634,None,511.83446383301634,None,511.83446383301634,None,-0.07128309572301425,-0.17006109979633402,0,0,0,1.5001492083247285,3.495321166323265,513.9050724999979,None,513.9050724999979,None,513.9050724999979,None,513.8463794996826,None,513.8463794996826,None,,001,2022_Apr_07_2134,goNogoTest,2021.2.3,None,
0.0,1.0,0.0,1.0,0.0,,,,,0,43,43,54,,,,,,,,,,,,,,,,,,,,,,,,,,,,,,,,,,,,,,,,,,,,,,,,,,,,,,,,,,,,,,,,,,,,,,,,,,,,,,,,,,,,,,,,,,,,,,,,,,,,,,,,,,,,,,,,,,,,,,,,,,,,,,,,,,,,,,,,,,,,,,,,,515.5847930000164,None,515.5847930000164,517.0829749999975,NoGo,517.0664902080025,519.0741514170077,517.0664902080025,519.0741514170077,517.0664902080025,519.0741514170077,-0.07128309572301425,-0.17006109979633402,0,0,0,1.502778626017971,3.5028050430119038,519.1505701249989,None,519.1505701249989,None,519.1505701249989,None,519.0908180836743,None,519.0908180836743,None,,001,2022_Apr_07_2134,goNogoTest,2021.2.3,None,
1.0,0.0,0.0,0.0,1.0,,,,,0,44,44,11,,,,,,,,,,,,,,,,,,,,,,,,,,,,,,,,,,,,,,,,,,,,,,,,,,,,,,,,,,,,,,,,,,,,,,,,,,,,,,,,,,,,,,,,,,,,,,,,,,,,,,,,,,,,,,,,,,,,,,,,,,,,,,,,,,,,,,,,,,,,,,,,,520.831612000009,None,520.831612000009,522.3255394579901,Go,522.3102781670168,None,522.3102781670168,None,522.3102781670168,None,-0.07128309572301425,-0.17006109979633402,1,0,0,1.501346999022644,None,523.0728900000104,None,523.0728900000104,None,523.0728900000104,None,523.015992374658,None,523.015992374658,None,,001,2022_Apr_07_2134,goNogoTest,2021.2.3,None,
0.0,0.0,1.0,0.0,0.0,,,,,0,45,45,70,,,,,,,,,,,,,,,,,,,,,,,,,,,,,,,,,,,,,,,,,,,,,,,,,,,,,,,,,,,,,,,,,,,,,,,,,,,,,,,,,,,,,,,,,,,,,,,,,,,,,,,,,,,,,,,,,,,,,,,,,,,,,,,,,,,,,,,,,,,,,,,,,524.7511684999918,None,524.7511684999918,526.2546067920048,Go,526.2546067920048,None,526.2546067920048,None,526.2546067920048,None,-0.07128309572301425,-0.17006109979633402,1,0,0,1.5004797503352165,None,527.1299601249921,None,527.1299601249921,None,527.1299601249921,None,527.0702656666729,None,527.0702656666729,None,,001,2022_Apr_07_2134,goNogoTest,2021.2.3,None,
0.0,0.0,1.0,1.0,1.0,,,,,0,46,46,83,,,,,,,,,,,,,,,,,,,,,,,,,,,,,,,,,,,,,,,,,,,,,,,,,,,,,,,,,,,,,,,,,,,,,,,,,,,,,,,,,,,,,,,,,,,,,,,,,,,,,,,,,,,,,,,,,,,,,,,,,,,,,,,,,,,,,,,,,,,,,,,,,528.8055062080093,None,528.8055062080093,530.2986065419973,Go,530.2932442919991,None,530.2932442919991,None,530.2932442919991,None,-0.07128309572301425,-0.17006109979633402,1,0,0,1.5015860833227634,None,531.6883397920174,None,531.6883397920174,None,531.6883397920174,None,531.6445409163503,None,531.6445409163503,None,,001,2022_Apr_07_2134,goNogoTest,2021.2.3,None,
1.0,0.0,0.0,1.0,1.0,,,,,0,47,47,4,,,,,,,,,,,,,,,,,,,,,,,,,,,,,,,,,,,,,,,,,,,,,,,,,,,,,,,,,,,,,,,,,,,,,,,,,,,,,,,,,,,,,,,,,,,,,,,,,,,,,,,,,,,,,,,,,,,,,,,,,,,,,,,,,,,,,,,,,,,,,,,,,533.4113741249894,None,533.4113741249894,534.9043564579915,Go,534.8880287079955,None,534.8880287079955,None,534.8880287079955,None,-0.07128309572301425,-0.17006109979633402,1,0,0,1.4993546660116408,None,536.2884687079932,None,536.2884687079932,None,536.2884687079932,None,536.2319167496792,None,536.2319167496792,None,,001,2022_Apr_07_2134,goNogoTest,2021.2.3,None,
0.0,1.0,0.0,1.0,0.0,,,,,0,48,48,44,,,,,,,,,,,,,,,,,,,,,,,,,,,,,,,,,,,,,,,,,,,,,,,,,,,,,,,,,,,,,,,,,,,,,,,,,,,,,,,,,,,,,,,,,,,,,,,,,,,,,,,,,,,,,,,,,,,,,,,,,,,,,,,,,,,,,,,,,,,,,,,,,537.9783406670031,None,537.9783406670031,539.4716974170005,NoGo,539.4716974170005,541.4617369580083,539.4716974170005,541.4617369580083,539.4716974170005,541.4617369580083,-0.07433808553971487,-0.1629327902240326,0,0,0,1.5012143753119744,3.491174458322348,541.5338697920088,None,541.5338697920088,None,541.5338697920088,None,541.4784036246749,None,541.4784036246749,None,,001,2022_Apr_07_2134,goNogoTest,2021.2.3,None,
0.0,0.0,1.0,0.0,0.0,,,,,0,49,49,63,,,,,,,,,,,,,,,,,,,,,,,,,,,,,,,,,,,,,,,,,,,,,,,,,,,,,,,,,,,,,,,,,,,,,,,,,,,,,,,,,,,,,,,,,,,,,,,,,,,,,,,,,,,,,,,,,,,,,,,,,,,,,,,,,,,,,,,,,,,,,,,,,543.2125602500164,None,543.2125602500164,544.7168995419925,Go,544.7168995419925,None,544.7168995419925,None,544.7168995419925,None,-0.07433808553971487,-0.1629327902240326,1,0,0,1.5014339583285619,None,545.4000460829993,None,545.4000460829993,None,545.4000460829993,None,545.34389474968,None,545.34389474968,None,,001,2022_Apr_07_2134,goNogoTest,2021.2.3,None,
0.0,1.0,0.0,1.0,0.0,,,,,0,50,50,45,,,,,,,,,,,,,,,,,,,,,,,,,,,,,,,,,,,,,,,,,,,,,,,,,,,,,,,,,,,,,,,,,,,,,,,,,,,,,,,,,,,,,,,,,,,,,,,,,,,,,,,,,,,,,,,,,,,,,,,,,,,,,,,,,,,,,,,,,,,,,,,,,547.076993374998,None,547.076993374998,548.5731999170093,NoGo,548.5499106670031,550.5412030000007,548.5499106670031,550.5412030000007,548.5499106670031,550.5412030000007,-0.07433808553971487,-0.164969450101833,0,0,0,1.5023733750276733,3.5036145410267636,550.6346110420127,None,550.6346110420127,None,550.6346110420127,None,550.5790777916593,None,550.5790777916593,None,,001,2022_Apr_07_2134,goNogoTest,2021.2.3,None,
0.0,1.0,0.0,1.0,0.0,,,,,0,51,51,57,,,,,,,,,,,,,,,,,,,,,,,,,,,,,,,,,,,,,,,,,,,,,,,,,,,,,,,,,,,,,,,,,,,,,,,,,,,,,,,,,,,,,,,,,,,,,,,,,,,,,,,,,,,,,,,,,,,,,,,,,,,,,,,,,,,,,,,,,,,,,,,,,552.3114136249933,None,552.3114136249933,553.8052367079945,NoGo,553.8052367079945,555.8041492080083,553.8052367079945,555.8041492080083,553.8052367079945,555.8041492080083,-0.07433808553971487,-0.164969450101833,0,0,0,1.500332958297804,3.499215124291368,555.8769407079963,None,555.8769407079963,None,555.8769407079963,None,555.820815874675,None,555.820815874675,None,,001,2022_Apr_07_2134,goNogoTest,2021.2.3,None,
1.0,0.0,0.0,0.0,1.0,,,,,0,52,52,10,,,,,,,,,,,,,,,,,,,,,,,,,,,,,,,,,,,,,,,,,,,,,,,,,,,,,,,,,,,,,,,,,,,,,,,,,,,,,,,,,,,,,,,,,,,,,,,,,,,,,,,,,,,,,,,,,,,,,,,,,,,,,,,,,,,,,,,,,,,,,,,,,557.5518458750157,None,557.5518458750157,559.0527257079957,Go,559.0431584579928,None,559.0431584579928,None,559.0431584579928,None,-0.07433808553971487,-0.1690427698574338,1,0,0,1.5000792913197074,None,559.7068829170021,None,559.7068829170021,None,559.7068829170021,None,559.6636141663262,None,559.6636141663262,None,,001,2022_Apr_07_2134,goNogoTest,2021.2.3,None,
0.0,0.0,1.0,1.0,1.0,,,,,0,53,53,77,,,,,,,,,,,,,,,,,,,,,,,,,,,,,,,,,,,,,,,,,,,,,,,,,,,,,,,,,,,,,,,,,,,,,,,,,,,,,,,,,,,,,,,,,,,,,,,,,,,,,,,,,,,,,,,,,,,,,,,,,,,,,,,,,,,,,,,,,,,,,,,,,561.4347822080017,None,561.4347822080017,562.9336131669988,Go,562.9336131669988,None,562.9336131669988,None,562.9336131669988,None,-0.07433808553971487,-0.1690427698574338,1,0,0,1.5061395003285725,None,563.4568712920009,None,563.4568712920009,None,563.4568712920009,None,563.3990957916578,None,563.3990957916578,None,,001,2022_Apr_07_2134,goNogoTest,2021.2.3,None,
0.0,0.0,1.0,1.0,0.0,,,,,0,54,54,78,,,,,,,,,,,,,,,,,,,,,,,,,,,,,,,,,,,,,,,,,,,,,,,,,,,,,,,,,,,,,,,,,,,,,,,,,,,,,,,,,,,,,,,,,,,,,,,,,,,,,,,,,,,,,,,,,,,,,,,,,,,,,,,,,,,,,,,,,,,,,,,,,565.186145832995,None,565.186145832995,566.6810224580113,Go,566.6728601669893,None,566.6728601669893,None,566.6728601669893,None,-0.07433808553971487,-0.1690427698574338,1,0,0,1.5021630423143506,None,567.9704503749963,None,567.9704503749963,None,567.9704503749963,None,567.9260820003478,None,567.9260820003478,None,,001,2022_Apr_07_2134,goNogoTest,2021.2.3,None,
0.0,0.0,1.0,1.0,1.0,,,,,0,55,55,72,,,,,,,,,,,,,,,,,,,,,,,,,,,,,,,,,,,,,,,,,,,,,,,,,,,,,,,,,,,,,,,,,,,,,,,,,,,,,,,,,,,,,,,,,,,,,,,,,,,,,,,,,,,,,,,,,,,,,,,,,,,,,,,,,,,,,,,,,,,,,,,,,569.6935283330095,573.1915065000067,569.6935283330095,571.2025470419903,NoGo,571.1818107079889,573.1736319999909,571.1818107079889,573.1736319999909,571.1818107079889,573.1736319999909,-0.07433808553971487,-0.1690427698574338,0,0,0,1.516809958324302,3.5057704173377715,573.2625688330154,None,573.2625688330154,None,573.2625688330154,None,573.2081731666733,None,573.2081731666733,None,,001,2022_Apr_07_2134,goNogoTest,2021.2.3,None,
0.0,1.0,0.0,1.0,1.0,,,,,0,56,56,51,,,,,,,,,,,,,,,,,,,,,,,,,,,,,,,,,,,,,,,,,,,,,,,,,,,,,,,,,,,,,,,,,,,,,,,,,,,,,,,,,,,,,,,,,,,,,,,,,,,,,,,,,,,,,,,,,,,,,,,,,,,,,,,,,,,,,,,,,,,,,,,,,574.9869320830039,None,574.9869320830039,576.4826046249946,Go,576.4747561670083,None,576.4747561670083,None,576.4747561670083,None,-0.07433808553971487,-0.1690427698574338,1,0,0,1.5042609993251972,None,577.6119639170065,None,577.6119639170065,None,577.6119639170065,None,577.568075958327,None,577.568075958327,None,,001,2022_Apr_07_2134,goNogoTest,2021.2.3,None,
1.0,0.0,0.0,1.0,1.0,,,,,0,57,57,14,,,,,,,,,,,,,,,,,,,,,,,,,,,,,,,,,,,,,,,,,,,,,,,,,,,,,,,,,,,,,,,,,,,,,,,,,,,,,,,,,,,,,,,,,,,,,,,,,,,,,,,,,,,,,,,,,,,,,,,,,,,,,,,,,,,,,,,,,,,,,,,,,579.3325067920086,None,579.3325067920086,580.8293041670113,NoGo,580.8224772920075,None,580.8224772920075,None,580.8224772920075,None,-0.07433808553971487,-0.1690427698574338,0,0,0,1.4990890003100503,3.5025703333085403,582.9037100420101,None,582.9037100420101,None,582.9037100420101,None,582.8424329586599,None,582.8424329586599,None,,001,2022_Apr_07_2134,goNogoTest,2021.2.3,None,
0.0,1.0,0.0,1.0,1.0,,,,,0,58,58,36,,,,,,,,,,,,,,,,,,,,,,,,,,,,,,,,,,,,,,,,,,,,,,,,,,,,,,,,,,,,,,,,,,,,,,,,,,,,,,,,,,,,,,,,,,,,,,,,,,,,,,,,,,,,,,,,,,,,,,,,,,,,,,,,,,,,,,,,,,,,,,,,,584.5913160000055,None,584.5913160000055,586.093081458006,NoGo,586.0843006669893,None,586.0843006669893,None,586.0843006669893,None,-0.05702647657841141,-0.17617107942973523,0,0,0,1.5140601660241373,3.509603498998331,588.1572094169969,None,588.1572094169969,None,588.1572094169969,None,588.1132974583384,None,588.1132974583384,None,,001,2022_Apr_07_2134,goNogoTest,2021.2.3,None,
1.0,0.0,0.0,0.0,1.0,,,,,0,59,59,9,,,,,,,,,,,,,,,,,,,,,,,,,,,,,,,,,,,,,,,,,,,,,,,,,,,,,,,,,,,,,,,,,,,,,,,,,,,,,,,,,,,,,,,,,,,,,,,,,,,,,,,,,,,,,,,,,,,,,,,,,,,,,,,,,,,,,,,,,,,,,,,,,589.8364449169894,None,589.8364449169894,591.3330282079987,Go,591.3281260830117,None,591.3281260830117,None,591.3281260830117,None,-0.05702647657841141,-0.17617107942973523,1,0,0,1.5038517912907992,None,592.243130457995,None,592.243130457995,None,592.243130457995,None,592.197687916349,None,592.197687916349,None,,001,2022_Apr_07_2134,goNogoTest,2021.2.3,None,
0.0,1.0,0.0,0.0,0.0,,,,,0,60,60,58,,,,,,,,,,,,,,,,,,,,,,,,,,,,,,,,,,,,,,,,,,,,,,,,,,,,,,,,,,,,,,,,,,,,,,,,,,,,,,,,,,,,,,,,,,,,,,,,,,,,,,,,,,,,,,,,,,,,,,,,,,,,,,,,,,,,,,,,,,,,,,,,,593.9280784580042,None,593.9280784580042,595.4253937499889,NoGo,595.4190770419955,597.4183227920148,595.4190770419955,597.4183227920148,595.4190770419955,597.4183227920148,-0.05804480651731161,-0.17617107942973523,0,0,0,1.4996270413103048,3.4988865413179155,597.5005268749956,None,597.5005268749956,None,597.5005268749956,None,597.4516561253481,None,597.4516561253481,None,,001,2022_Apr_07_2134,goNogoTest,2021.2.3,None,
0.0,1.0,0.0,1.0,0.0,,,,,0,61,61,50,,,,,,,,,,,,,,,,,,,,,,,,,,,,,,,,,,,,,,,,,,,,,,,,,,,,,,,,,,,,,,,,,,,,,,,,,,,,,,,,,,,,,,,,,,,,,,,,,,,,,,,,,,,,,,,,,,,,,,,,,,,,,,,,,,,,,,,,,,,,,,,,,599.1946781250008,None,599.1946781250008,600.6850059170101,NoGo,600.6785238750163,602.682629042014,600.6785238750163,602.682629042014,600.6785238750163,602.682629042014,-0.05804480651731161,-0.17617107942973523,0,0,0,1.5014887490251567,3.4973237910307944,602.7597964580054,None,602.7597964580054,None,602.7597964580054,None,602.6992957086807,None,602.6992957086807,None,,001,2022_Apr_07_2134,goNogoTest,2021.2.3,None,
1.0,0.0,0.0,0.0,1.0,,,,,0,62,62,3,,,,,,,,,,,,,,,,,,,,,,,,,,,,,,,,,,,,,,,,,,,,,,,,,,,,,,,,,,,,,,,,,,,,,,,,,,,,,,,,,,,,,,,,,,,,,,,,,,,,,,,,,,,,,,,,,,,,,,,,,,,,,,,,,,,,,,,,,,,,,,,,,604.4839077499928,None,604.4839077499928,605.9730749579903,Go,605.9678235000174,None,605.9678235000174,None,605.9678235000174,None,-0.05804480651731161,-0.17617107942973523,1,0,0,1.5042119580029976,None,606.4899865830084,None,606.4899865830084,None,606.4899865830084,None,606.4315598336727,None,606.4315598336727,None,,001,2022_Apr_07_2134,goNogoTest,2021.2.3,None,
0.0,0.0,1.0,1.0,1.0,,,,,0,63,63,68,,,,,,,,,,,,,,,,,,,,,,,,,,,,,,,,,,,,,,,,,,,,,,,,,,,,,,,,,,,,,,,,,,,,,,,,,,,,,,,,,,,,,,,,,,,,,,,,,,,,,,,,,,,,,,,,,,,,,,,,,,,,,,,,,,,,,,,,,,,,,,,,,608.1828851670143,None,608.1828851670143,609.6834027500008,Go,609.65808641701,None,609.65808641701,None,609.65808641701,None,-0.05804480651731161,-0.17718940936863545,1,0,0,1.5029564580181614,None,610.5069574170047,None,610.5069574170047,None,610.5069574170047,None,610.4476423336639,None,610.4476423336639,None,,001,2022_Apr_07_2134,goNogoTest,2021.2.3,None,
0.0,0.0,1.0,0.0,0.0,,,,,0,64,64,84,,,,,,,,,,,,,,,,,,,,,,,,,,,,,,,,,,,,,,,,,,,,,,,,,,,,,,,,,,,,,,,,,,,,,,,,,,,,,,,,,,,,,,,,,,,,,,,,,,,,,,,,,,,,,,,,,,,,,,,,,,,,,,,,,,,,,,,,,,,,,,,,,612.2368762500118,615.7265563330147,612.2368762500118,613.7282987080107,NoGo,613.7282987080107,615.7265563330147,613.7282987080107,615.7265563330147,613.7282987080107,615.7265563330147,-0.05804480651731161,-0.17718940936863545,0,0,0,1.4996346673287917,3.4979063343489543,615.7990688330028,None,615.7990688330028,None,615.7990688330028,None,615.7432229996814,None,615.7432229996814,None,,001,2022_Apr_07_2134,goNogoTest,2021.2.3,None,
1.0,0.0,0.0,0.0,1.0,,,,,0,65,65,20,,,,,,,,,,,,,,,,,,,,,,,,,,,,,,,,,,,,,,,,,,,,,,,,,,,,,,,,,,,,,,,,,,,,,,,,,,,,,,,,,,,,,,,,,,,,,,,,,,,,,,,,,,,,,,,,,,,,,,,,,,,,,,,,,,,,,,,,,,,,,,,,,617.5205301250098,None,617.5205301250098,619.0132683750126,Go,619.0132683750126,None,619.0132683750126,None,619.0132683750126,None,-0.05804480651731161,-0.17718940936863545,1,0,0,1.5017767923127394,None,620.218139958015,None,620.218139958015,None,620.218139958015,None,620.1603533746713,None,620.1603533746713,None,,001,2022_Apr_07_2134,goNogoTest,2021.2.3,None,
0.0,0.0,1.0,0.0,1.0,,,,,0,66,66,81,,,,,,,,,,,,,,,,,,,,,,,,,,,,,,,,,,,,,,,,,,,,,,,,,,,,,,,,,,,,,,,,,,,,,,,,,,,,,,,,,,,,,,,,,,,,,,,,,,,,,,,,,,,,,,,,,,,,,,,,,,,,,,,,,,,,,,,,,,,,,,,,,621.8979044579901,None,621.8979044579901,623.3867944999947,Go,623.3750957500015,None,623.3750957500015,None,623.3750957500015,None,-0.05804480651731161,-0.17718940936863545,1,0,0,1.5045255010190886,None,624.5425979580032,None,624.5425979580032,None,624.5425979580032,None,624.4815337496732,None,624.4815337496732,None,,001,2022_Apr_07_2134,goNogoTest,2021.2.3,None,
1.0,0.0,0.0,0.0,1.0,,,,,0,67,67,13,,,,,,,,,,,,,,,,,,,,,,,,,,,,,,,,,,,,,,,,,,,,,,,,,,,,,,,,,,,,,,,,,,,,,,,,,,,,,,,,,,,,,,,,,,,,,,,,,,,,,,,,,,,,,,,,,,,,,,,,,,,,,,,,,,,,,,,,,,,,,,,,,626.2683492079959,None,626.2683492079959,627.7620271249907,Go,627.7620271249907,None,627.7620271249907,None,627.7620271249907,None,-0.05804480651731161,-0.17718940936863545,1,0,0,1.501401209330652,None,628.9058385000098,None,628.9058385000098,None,628.9058385000098,None,628.861318916323,None,628.861318916323,None,,001,2022_Apr_07_2134,goNogoTest,2021.2.3,None,
0.0,0.0,1.0,1.0,1.0,,,,,0,68,68,62,,,,,,,,,,,,,,,,,,,,,,,,,,,,,,,,,,,,,,,,,,,,,,,,,,,,,,,,,,,,,,,,,,,,,,,,,,,,,,,,,,,,,,,,,,,,,,,,,,,,,,,,,,,,,,,,,,,,,,,,,,,,,,,,,,,,,,,,,,,,,,,,,630.6321319169947,None,630.6321319169947,632.1265234579914,Go,632.1185165420175,None,632.1185165420175,None,632.1185165420175,None,-0.05804480651731161,-0.17718940936863545,1,0,0,1.5024466243048664,None,633.2066301669984,None,633.2066301669984,None,633.2066301669984,None,633.1500545416823,None,633.1500545416823,None,,001,2022_Apr_07_2134,goNogoTest,2021.2.3,None,
0.0,1.0,0.0,1.0,1.0,,,,,0,69,69,35,,,,,,,,,,,,,,,,,,,,,,,,,,,,,,,,,,,,,,,,,,,,,,,,,,,,,,,,,,,,,,,,,,,,,,,,,,,,,,,,,,,,,,,,,,,,,,,,,,,,,,,,,,,,,,,,,,,,,,,,,,,,,,,,,,,,,,,,,,,,,,,,,634.9333380830067,None,634.9333380830067,636.4305471669941,NoGo,636.425214124989,638.419827375008,636.425214124989,638.419827375008,636.425214124989,638.419827375008,-0.05804480651731161,-0.17718940936863545,0,0,0,1.4994137913454324,3.4939868743531406,638.4923607500095,None,638.4923607500095,None,638.4923607500095,None,638.4364940416747,None,638.4364940416747,None,,001,2022_Apr_07_2134,goNogoTest,2021.2.3,None,
1.0,0.0,0.0,1.0,1.0,,,,,0,70,70,2,,,,,,,,,,,,,,,,,,,,,,,,,,,,,,,,,,,,,,,,,,,,,,,,,,,,,,,,,,,,,,,,,,,,,,,,,,,,,,,,,,,,,,,,,,,,,,,,,,,,,,,,,,,,,,,,,,,,,,,,,,,,,,,,,,,,,,,,,,,,,,,,,640.2200065419893,None,640.2200065419893,641.7192844169913,Go,641.7086396669911,None,641.7086396669911,None,641.7086396669911,None,-0.05804480651731161,-0.17718940936863545,1,0,0,1.5070878743135836,None,642.9591431670124,None,642.9591431670124,None,642.9591431670124,None,642.8997101246825,None,642.8997101246825,None,,001,2022_Apr_07_2134,goNogoTest,2021.2.3,None,
1.0,0.0,0.0,0.0,1.0,,,,,0,71,71,18,,,,,,,,,,,,,,,,,,,,,,,,,,,,,,,,,,,,,,,,,,,,,,,,,,,,,,,,,,,,,,,,,,,,,,,,,,,,,,,,,,,,,,,,,,,,,,,,,,,,,,,,,,,,,,,,,,,,,,,,,,,,,,,,,,,,,,,,,,,,,,,,,644.6869217920175,None,644.6869217920175,646.1824705830077,Go,646.1775903750095,None,646.1775903750095,None,646.1775903750095,None,-0.05804480651731161,-0.17718940936863545,1,0,0,1.5022347913472913,None,647.0528529169969,None,647.0528529169969,None,647.0528529169969,None,646.9954194996719,None,646.9954194996719,None,,001,2022_Apr_07_2134,goNogoTest,2021.2.3,None,
0.0,1.0,0.0,1.0,0.0,,,,,0,72,72,32,,,,,,,,,,,,,,,,,,,,,,,,,,,,,,,,,,,,,,,,,,,,,,,,,,,,,,,,,,,,,,,,,,,,,,,,,,,,,,,,,,,,,,,,,,,,,,,,,,,,,,,,,,,,,,,,,,,,,,,,,,,,,,,,,,,,,,,,,,,,,,,,,648.7762142080173,None,648.7762142080173,650.270890499989,NoGo,650.265866917005,None,650.265866917005,None,650.265866917005,None,-0.05804480651731161,-0.17718940936863545,0,0,0,1.5026942503463943,3.4915606253489386,652.3349214170012,None,652.3349214170012,None,652.3349214170012,None,652.2764425836833,None,652.2764425836833,None,,001,2022_Apr_07_2134,goNogoTest,2021.2.3,None,
0.0,1.0,0.0,1.0,0.0,,,,,0,73,73,46,,,,,,,,,,,,,,,,,,,,,,,,,,,,,,,,,,,,,,,,,,,,,,,,,,,,,,,,,,,,,,,,,,,,,,,,,,,,,,,,,,,,,,,,,,,,,,,,,,,,,,,,,,,,,,,,,,,,,,,,,,,,,,,,,,,,,,,,,,,,,,,,,654.0611462919915,None,654.0611462919915,655.554837292002,NoGo,655.5496251250152,657.5372121669934,655.5496251250152,657.5372121669934,655.5496251250152,657.5372121669934,-0.05804480651731161,-0.17718940936863545,0,0,0,1.5023894163023215,3.4972409582987893,657.6236582919955,None,657.6236582919955,None,657.6236582919955,None,657.5663814996699,None,657.5663814996699,None,,001,2022_Apr_07_2134,goNogoTest,2021.2.3,None,
0.0,0.0,1.0,0.0,1.0,,,,,0,74,74,61,,,,,,,,,,,,,,,,,,,,,,,,,,,,,,,,,,,,,,,,,,,,,,,,,,,,,,,,,,,,,,,,,,,,,,,,,,,,,,,,,,,,,,,,,,,,,,,,,,,,,,,,,,,,,,,,,,,,,,,,,,,,,,,,,,,,,,,,,,,,,,,,,659.3478615829954,None,659.3478615829954,660.8429375830165,NoGo,660.8341897079954,662.8248382500024,660.8341897079954,662.8248382500024,660.8341897079954,662.8248382500024,-0.05804480651731161,-0.17718940936863545,0,0,0,1.5031524162914138,3.503187166294083,662.9196375420142,None,662.9196375420142,None,662.9196375420142,None,662.8763177083242,None,662.8763177083242,None,,001,2022_Apr_07_2134,goNogoTest,2021.2.3,None,
1.0,0.0,0.0,0.0,1.0,,,,,0,75,75,22,,,,,,,,,,,,,,,,,,,,,,,,,,,,,,,,,,,,,,,,,,,,,,,,,,,,,,,,,,,,,,,,,,,,,,,,,,,,,,,,,,,,,,,,,,,,,,,,,,,,,,,,,,,,,,,,,,,,,,,,,,,,,,,,,,,,,,,,,,,,,,,,,664.6361647500016,None,664.6361647500016,666.1283168749942,Go,666.1227674580005,None,666.1227674580005,None,666.1227674580005,None,-0.05804480651731161,-0.17718940936863545,1,0,0,1.5010380423336755,None,667.0202975000138,None,667.0202975000138,None,667.0202975000138,None,666.9612596246627,None,666.9612596246627,None,,001,2022_Apr_07_2134,goNogoTest,2021.2.3,None,
0.0,0.0,1.0,1.0,1.0,,,,,0,76,76,86,,,,,,,,,,,,,,,,,,,,,,,,,,,,,,,,,,,,,,,,,,,,,,,,,,,,,,,,,,,,,,,,,,,,,,,,,,,,,,,,,,,,,,,,,,,,,,,,,,,,,,,,,,,,,,,,,,,,,,,,,,,,,,,,,,,,,,,,,,,,,,,,,668.7392080830177,None,668.7392080830177,670.2330385830137,Go,670.2279547920043,None,670.2279547920043,None,670.2279547920043,None,-0.05804480651731161,-0.17718940936863545,1,0,0,1.501754875323968,None,671.2053886670037,None,671.2053886670037,None,671.2053886670037,None,671.1478268336834,None,671.1478268336834,None,,001,2022_Apr_07_2134,goNogoTest,2021.2.3,None,
1.0,0.0,0.0,0.0,1.0,,,,,0,77,77,19,,,,,,,,,,,,,,,,,,,,,,,,,,,,,,,,,,,,,,,,,,,,,,,,,,,,,,,,,,,,,,,,,,,,,,,,,,,,,,,,,,,,,,,,,,,,,,,,,,,,,,,,,,,,,,,,,,,,,,,,,,,,,,,,,,,,,,,,,,,,,,,,,672.882274167001,None,672.882274167001,674.3788695000112,NoGo,674.3604078750068,676.3574397079938,674.3604078750068,676.3574397079938,674.3604078750068,676.3574397079938,-0.05804480651731161,-0.1924643584521385,0,0,0,1.5007363330223598,3.4929902080330066,676.451968917012,None,676.451968917012,None,676.451968917012,None,676.4073129583344,None,676.4073129583344,None,,001,2022_Apr_07_2134,goNogoTest,2021.2.3,None,
0.0,1.0,0.0,1.0,0.0,,,,,0,78,78,41,,,,,,,,,,,,,,,,,,,,,,,,,,,,,,,,,,,,,,,,,,,,,,,,,,,,,,,,,,,,,,,,,,,,,,,,,,,,,,,,,,,,,,,,,,,,,,,,,,,,,,,,,,,,,,,,,,,,,,,,,,,,,,,,,,,,,,,,,,,,,,,,,678.1682261670067,None,678.1682261670067,679.660231167014,Go,679.6507602079946,None,679.6507602079946,None,679.6507602079946,None,-0.05804480651731161,-0.1924643584521385,1,0,0,1.5013636672811117,None,681.1160944169969,None,681.1160944169969,None,681.1160944169969,None,681.0578573746645,None,681.0578573746645,None,,001,2022_Apr_07_2134,goNogoTest,2021.2.3,None,
