mouse1.x,mouse1.y,mouse1.leftButton,mouse1.midButton,mouse1.rightButton,mouse1.clicked_name,mouse2.x,mouse2.y,mouse2.leftButton,mouse2.midButton,mouse2.rightButton,mouse2.clicked_name,mouse4.x,mouse4.y,mouse4.leftButton,mouse4.midButton,mouse4.rightButton,mouse4.clicked_name,mouse5.x,mouse5.y,mouse5.leftButton,mouse5.midButton,mouse5.rightButton,mouse5.clicked_name,mouse6.x,mouse6.y,mouse6.leftButton,mouse6.midButton,mouse6.rightButton,mouse6.clicked_name,subj_choice_practice,practice_rt,touchResp.x,touchResp.y,touchResp.leftButton,touchResp.midButton,touchResp.rightButton,trials_practice.thisRepN,trials_practice.thisTrialN,trials_practice.thisN,trials_practice.thisIndex,trials_practice.ran,cue1,cue2,cue3,resultGo,resultNoGo,participant,session,study,group,date,expName,psychopyVersion,OS,frameRate,mouse7.x,mouse7.y,mouse7.leftButton,mouse7.midButton,mouse7.rightButton,mouse7.clicked_name,subj_choice,rt,points,touchResp_2.x,touchResp_2.y,touchResp_2.leftButton,touchResp_2.midButton,touchResp_2.rightButton,trials2_part1.thisRepN,trials2_part1.thisTrialN,trials2_part1.thisN,trials2_part1.thisIndex,trials2_part1.ran,trials2_part2.thisRepN,trials2_part2.thisTrialN,trials2_part2.thisN,trials2_part2.thisIndex,trials2_part2.ran,trials1_part1.thisRepN,trials1_part1.thisTrialN,trials1_part1.thisN,trials1_part1.thisIndex,trials1_part1.ran,trials1_part2.thisRepN,trials1_part2.thisTrialN,trials1_part2.thisN,trials1_part2.thisIndex,trials1_part2.ran
0.027831365,-0.274641167,1,0,0,button1,-0.003862881,-0.37553465,1,0,0,button2,-0.011420759,-0.393494689,1,0,0,button4,0.0219801,-0.306863729,1,0,0,button5,0.001013154,-0.411983009,1,0,0,button6,NoGo,,0.001013154,-0.411983009,0,0,0,0,0,0,5,1,0,1,0,0,0,Pm-test-144trials,001,internal pilot,B,2022-05-04_24h36.08.099,gonogo_uncertainty,2021.2.3,Linux armv8l,59.84440455,,,,,,,,,,,,,,,,,,,,,,,,,,,,,,,,,,
,,,,,,,,,,,,,,,,,,,,,,,,,,,,,,Go,0.607,0.255298652,0.399390137,1,0,0,0,1,1,4,1,1,0,0,1,1,Pm-test-144trials,001,internal pilot,B,2022-05-04_24h36.08.099,gonogo_uncertainty,2021.2.3,Linux armv8l,59.84440455,,,,,,,,,,,,,,,,,,,,,,,,,,,,,,,,,,
,,,,,,,,,,,,,,,,,,,,,,,,,,,,,,Go,0.608,0.19337293,0.166965522,1,0,0,0,2,2,3,1,1,0,0,0,1,Pm-test-144trials,001,internal pilot,B,2022-05-04_24h36.08.099,gonogo_uncertainty,2021.2.3,Linux armv8l,59.84440455,,,,,,,,,,,,,,,,,,,,,,,,,,,,,,,,,,
,,,,,,,,,,,,,,,,,,,,,,,,,,,,,,Go,0.4637,0.283579706,0.281593101,1,0,0,0,3,3,2,1,1,0,0,0,1,Pm-test-144trials,001,internal pilot,B,2022-05-04_24h36.08.099,gonogo_uncertainty,2021.2.3,Linux armv8l,59.84440455,,,,,,,,,,,,,,,,,,,,,,,,,,,,,,,,,,
,,,,,,,,,,,,,,,,,,,,,,,,,,,,,,Go,0.5047,0.266513565,0.25254007,1,0,0,0,4,4,1,1,1,0,0,0,1,Pm-test-144trials,001,internal pilot,B,2022-05-04_24h36.08.099,gonogo_uncertainty,2021.2.3,Linux armv8l,59.84440455,,,,,,,,,,,,,,,,,,,,,,,,,,,,,,,,,,
,,,,,,,,,,,,,,,,,,,,,,,,,,,,,,NoGo,,0.266513565,0.25254007,0,0,0,0,5,5,8,1,0,1,0,0,0,Pm-test-144trials,001,internal pilot,B,2022-05-04_24h36.08.099,gonogo_uncertainty,2021.2.3,Linux armv8l,59.84440455,,,,,,,,,,,,,,,,,,,,,,,,,,,,,,,,,,
,,,,,,,,,,,,,,,,,,,,,,,,,,,,,,Go,1.379,0.310885531,0.282649587,1,0,0,0,6,6,0,1,1,0,0,0,0,Pm-test-144trials,001,internal pilot,B,2022-05-04_24h36.08.099,gonogo_uncertainty,2021.2.3,Linux armv8l,59.84440455,,,,,,,,,,,,,,,,,,,,,,,,,,,,,,,,,,
,,,,,,,,,,,,,,,,,,,,,,,,,,,,,,NoGo,,0.307716073,0.282649587,0,0,0,0,7,7,7,1,0,1,0,1,1,Pm-test-144trials,001,internal pilot,B,2022-05-04_24h36.08.099,gonogo_uncertainty,2021.2.3,Linux armv8l,59.84440455,,,,,,,,,,,,,,,,,,,,,,,,,,,,,,,,,,
,,,,,,,,,,,,,,,,,,,,,,,,,,,,,,NoGo,,0.307716073,0.282649587,0,0,0,0,8,8,6,1,0,1,0,1,0,Pm-test-144trials,001,internal pilot,B,2022-05-04_24h36.08.099,gonogo_uncertainty,2021.2.3,Linux armv8l,59.84440455,,,,,,,,,,,,,,,,,,,,,,,,,,,,,,,,,,
,,,,,,,,,,,,,,,,,,,,,,,,,,,,,,NoGo,,0.307716073,0.282649587,0,0,0,0,9,9,9,1,0,1,0,1,0,Pm-test-144trials,001,internal pilot,B,2022-05-04_24h36.08.099,gonogo_uncertainty,2021.2.3,Linux armv8l,59.84440455,,,,,,,,,,,,,,,,,,,,,,,,,,,,,,,,,,
,,,,,,,,,,,,,,,,,,,,,,,,,,,,,,,,,,,,,,,,,,0,1,0,1,0,Pm-test-144trials,001,internal pilot,B,2022-05-04_24h36.08.099,gonogo_uncertainty,2021.2.3,Linux armv8l,59.84440455,-0.026292671,-0.215478545,1,0,0,button7,Go,1.1068,498,0.394022081,-0.007881165,1,0,0,0,0,0,12,1,,,,,,,,,,,,,,,
,,,,,,,,,,,,,,,,,,,,,,,,,,,,,,,,,,,,,,,,,,1,0,0,0,1,Pm-test-144trials,001,internal pilot,B,2022-05-04_24h36.08.099,gonogo_uncertainty,2021.2.3,Linux armv8l,59.84440455,,,,,,,Go,0.7477,498,0.365984796,-0.001014043,1,0,0,0,1,1,9,1,,,,,,,,,,,,,,,
,,,,,,,,,,,,,,,,,,,,,,,,,,,,,,,,,,,,,,,,,,0,0,1,1,1,Pm-test-144trials,001,internal pilot,B,2022-05-04_24h36.08.099,gonogo_uncertainty,2021.2.3,Linux armv8l,59.84440455,,,,,,,NoGo,,496,0.365984796,-0.001014043,0,0,0,0,2,2,32,1,,,,,,,,,,,,,,,
,,,,,,,,,,,,,,,,,,,,,,,,,,,,,,,,,,,,,,,,,,1,0,0,0,0,Pm-test-144trials,001,internal pilot,B,2022-05-04_24h36.08.099,gonogo_uncertainty,2021.2.3,Linux armv8l,59.84440455,,,,,,,Go,1.577,496,0.368178951,-0.018445876,1,0,0,0,3,3,6,1,,,,,,,,,,,,,,,
,,,,,,,,,,,,,,,,,,,,,,,,,,,,,,,,,,,,,,,,,,0,1,0,1,1,Pm-test-144trials,001,internal pilot,B,2022-05-04_24h36.08.099,gonogo_uncertainty,2021.2.3,Linux armv8l,59.84440455,,,,,,,NoGo,,494,0.368178951,-0.018445876,0,0,0,0,4,4,13,1,,,,,,,,,,,,,,,
,,,,,,,,,,,,,,,,,,,,,,,,,,,,,,,,,,,,,,,,,,0,0,1,1,1,Pm-test-144trials,001,internal pilot,B,2022-05-04_24h36.08.099,gonogo_uncertainty,2021.2.3,Linux armv8l,59.84440455,,,,,,,Go,1.3005,492,0.37037318,-0.015804698,1,0,0,0,5,5,24,1,,,,,,,,,,,,,,,
,,,,,,,,,,,,,,,,,,,,,,,,,,,,,,,,,,,,,,,,,,1,0,0,0,0,Pm-test-144trials,001,internal pilot,B,2022-05-04_24h36.08.099,gonogo_uncertainty,2021.2.3,Linux armv8l,59.84440455,,,,,,,Go,1.9815,492,0.369641795,-0.024256512,1,0,0,0,6,6,5,1,,,,,,,,,,,,,,,
,,,,,,,,,,,,,,,,,,,,,,,,,,,,,,,,,,,,,,,,,,0,0,1,1,0,Pm-test-144trials,001,internal pilot,B,2022-05-04_24h36.08.099,gonogo_uncertainty,2021.2.3,Linux armv8l,59.84440455,,,,,,,NoGo,,492,0.369641795,-0.024256512,0,0,0,0,7,7,29,1,,,,,,,,,,,,,,,
,,,,,,,,,,,,,,,,,,,,,,,,,,,,,,,,,,,,,,,,,,1,0,0,0,1,Pm-test-144trials,001,internal pilot,B,2022-05-04_24h36.08.099,gonogo_uncertainty,2021.2.3,Linux armv8l,59.84440455,,,,,,,Go,1.4152,492,0.369641795,-0.021615334,1,0,0,0,8,8,4,1,,,,,,,,,,,,,,,
,,,,,,,,,,,,,,,,,,,,,,,,,,,,,,,,,,,,,,,,,,1,0,0,0,1,Pm-test-144trials,001,internal pilot,B,2022-05-04_24h36.08.099,gonogo_uncertainty,2021.2.3,Linux armv8l,59.84440455,,,,,,,Go,0.7119,492,0.374517867,-0.013691726,1,0,0,0,9,9,7,1,,,,,,,,,,,,,,,
,,,,,,,,,,,,,,,,,,,,,,,,,,,,,,,,,,,,,,,,,,0,1,0,1,0,Pm-test-144trials,001,internal pilot,B,2022-05-04_24h36.08.099,gonogo_uncertainty,2021.2.3,Linux armv8l,59.84440455,,,,,,,NoGo,,492,0.374517867,-0.013691726,0,0,0,0,10,10,15,1,,,,,,,,,,,,,,,
,,,,,,,,,,,,,,,,,,,,,,,,,,,,,,,,,,,,,,,,,,0,1,0,1,0,Pm-test-144trials,001,internal pilot,B,2022-05-04_24h36.08.099,gonogo_uncertainty,2021.2.3,Linux armv8l,59.84440455,,,,,,,NoGo,,492,0.427422903,0.447987973,0,0,0,0,11,11,16,1,,,,,,,,,,,,,,,
,,,,,,,,,,,,,,,,,,,,,,,,,,,,,,,,,,,,,,,,,,0,0,1,0,1,Pm-test-144trials,001,internal pilot,B,2022-05-04_24h36.08.099,gonogo_uncertainty,2021.2.3,Linux armv8l,59.84440455,,,,,,,Go,1.1862,492,0.410600533,-0.123565229,1,0,0,0,12,12,35,1,,,,,,,,,,,,,,,
,,,,,,,,,,,,,,,,,,,,,,,,,,,,,,,,,,,,,,,,,,0,0,1,1,1,Pm-test-144trials,001,internal pilot,B,2022-05-04_24h36.08.099,gonogo_uncertainty,2021.2.3,Linux armv8l,59.84440455,,,,,,,NoGo,,490,0.412063376,-0.121452257,0,0,0,0,13,13,33,1,,,,,,,,,,,,,,,
,,,,,,,,,,,,,,,,,,,,,,,,,,,,,,,,,,,,,,,,,,0,0,1,0,0,Pm-test-144trials,001,internal pilot,B,2022-05-04_24h36.08.099,gonogo_uncertainty,2021.2.3,Linux armv8l,59.84440455,,,,,,,Go,0.7821,490,0.432298901,-0.081306161,1,0,0,0,14,14,34,1,,,,,,,,,,,,,,,
,,,,,,,,,,,,,,,,,,,,,,,,,,,,,,,,,,,,,,,,,,0,1,0,1,0,Pm-test-144trials,001,internal pilot,B,2022-05-04_24h36.08.099,gonogo_uncertainty,2021.2.3,Linux armv8l,59.84440455,,,,,,,Go,0.9543,488,0.428641903,-0.019502362,1,0,0,0,15,15,19,1,,,,,,,,,,,,,,,
,,,,,,,,,,,,,,,,,,,,,,,,,,,,,,,,,,,,,,,,,,1,0,0,0,1,Pm-test-144trials,001,internal pilot,B,2022-05-04_24h36.08.099,gonogo_uncertainty,2021.2.3,Linux armv8l,59.84440455,,,,,,,Go,1.2227,488,0.429129517,-0.072326142,1,0,0,0,16,16,11,1,,,,,,,,,,,,,,,
,,,,,,,,,,,,,,,,,,,,,,,,,,,,,,,,,,,,,,,,,,1,0,0,1,1,Pm-test-144trials,001,internal pilot,B,2022-05-04_24h36.08.099,gonogo_uncertainty,2021.2.3,Linux armv8l,59.84440455,,,,,,,Go,1.1079,486,0.354038498,0.193377449,1,0,0,0,17,17,3,1,,,,,,,,,,,,,,,
,,,,,,,,,,,,,,,,,,,,,,,,,,,,,,,,,,,,,,,,,,0,1,0,1,0,Pm-test-144trials,001,internal pilot,B,2022-05-04_24h36.08.099,gonogo_uncertainty,2021.2.3,Linux armv8l,59.84440455,,,,,,,NoGo,,486,0.354038498,0.193377449,0,0,0,0,18,18,20,1,,,,,,,,,,,,,,,
,,,,,,,,,,,,,,,,,,,,,,,,,,,,,,,,,,,,,,,,,,0,0,1,1,0,Pm-test-144trials,001,internal pilot,B,2022-05-04_24h36.08.099,gonogo_uncertainty,2021.2.3,Linux armv8l,59.84440455,,,,,,,NoGo,,486,0.354038498,0.193377449,0,0,0,0,19,19,26,1,,,,,,,,,,,,,,,
,,,,,,,,,,,,,,,,,,,,,,,,,,,,,,,,,,,,,,,,,,1,0,0,0,1,Pm-test-144trials,001,internal pilot,B,2022-05-04_24h36.08.099,gonogo_uncertainty,2021.2.3,Linux armv8l,59.84440455,,,,,,,Go,1.0695,486,-0.07871013,-0.081306161,1,0,0,0,20,20,10,1,,,,,,,,,,,,,,,
,,,,,,,,,,,,,,,,,,,,,,,,,,,,,,,,,,,,,,,,,,0,1,0,1,1,Pm-test-144trials,001,internal pilot,B,2022-05-04_24h36.08.099,gonogo_uncertainty,2021.2.3,Linux armv8l,59.84440455,,,,,,,NoGo,,484,-0.058474531,-0.087116797,0,0,0,0,21,21,22,1,,,,,,,,,,,,,,,
,,,,,,,,,,,,,,,,,,,,,,,,,,,,,,,,,,,,,,,,,,0,1,0,1,0,Pm-test-144trials,001,internal pilot,B,2022-05-04_24h36.08.099,gonogo_uncertainty,2021.2.3,Linux armv8l,59.84440455,,,,,,,Go,1.5573,482,0.07756698,-0.21019619,1,0,0,0,22,22,17,1,,,,,,,,,,,,,,,
,,,,,,,,,,,,,,,,,,,,,,,,,,,,,,,,,,,,,,,,,,1,0,0,0,1,Pm-test-144trials,001,internal pilot,B,2022-05-04_24h36.08.099,gonogo_uncertainty,2021.2.3,Linux armv8l,59.84440455,,,,,,,Go,1.8395,482,0.310641687,-0.063346122,1,0,0,0,23,23,1,1,,,,,,,,,,,,,,,
,,,,,,,,,,,,,,,,,,,,,,,,,,,,,,,,,,,,,,,,,,1,0,0,1,0,Pm-test-144trials,001,internal pilot,B,2022-05-04_24h36.08.099,gonogo_uncertainty,2021.2.3,Linux armv8l,59.84440455,,,,,,,Go,1.7747,480,0.218972141,-0.1182828,1,0,0,0,24,24,0,1,,,,,,,,,,,,,,,
,,,,,,,,,,,,,,,,,,,,,,,,,,,,,,,,,,,,,,,,,,0,0,1,0,0,Pm-test-144trials,001,internal pilot,B,2022-05-04_24h36.08.099,gonogo_uncertainty,2021.2.3,Linux armv8l,59.84440455,,,,,,,Go,1.3902,480,0.310397991,-0.087645003,1,0,0,0,25,25,30,1,,,,,,,,,,,,,,,
,,,,,,,,,,,,,,,,,,,,,,,,,,,,,,,,,,,,,,,,,,0,0,1,0,0,Pm-test-144trials,001,internal pilot,B,2022-05-04_24h36.08.099,gonogo_uncertainty,2021.2.3,Linux armv8l,59.84440455,,,,,,,NoGo,,480,0.306740844,-0.093983919,0,0,0,0,26,26,27,1,,,,,,,,,,,,,,,
,,,,,,,,,,,,,,,,,,,,,,,,,,,,,,,,,,,,,,,,,,0,1,0,1,0,Pm-test-144trials,001,internal pilot,B,2022-05-04_24h36.08.099,gonogo_uncertainty,2021.2.3,Linux armv8l,59.84440455,,,,,,,NoGo,,480,0.306740844,-0.093983919,0,0,0,0,27,27,23,1,,,,,,,,,,,,,,,
,,,,,,,,,,,,,,,,,,,,,,,,,,,,,,,,,,,,,,,,,,0,0,1,1,1,Pm-test-144trials,001,internal pilot,B,2022-05-04_24h36.08.099,gonogo_uncertainty,2021.2.3,Linux armv8l,59.84440455,,,,,,,NoGo,,478,0.306740844,-0.093983919,0,0,0,0,28,28,28,1,,,,,,,,,,,,,,,
,,,,,,,,,,,,,,,,,,,,,,,,,,,,,,,,,,,,,,,,,,0,1,0,0,1,Pm-test-144trials,001,internal pilot,B,2022-05-04_24h36.08.099,gonogo_uncertainty,2021.2.3,Linux armv8l,59.84440455,,,,,,,NoGo,,476,0.306740844,-0.093983919,0,0,0,0,29,29,18,1,,,,,,,,,,,,,,,
,,,,,,,,,,,,,,,,,,,,,,,,,,,,,,,,,,,,,,,,,,0,0,1,0,1,Pm-test-144trials,001,internal pilot,B,2022-05-04_24h36.08.099,gonogo_uncertainty,2021.2.3,Linux armv8l,59.84440455,,,,,,,NoGo,,474,0.306740844,-0.093983919,0,0,0,0,30,30,25,1,,,,,,,,,,,,,,,
,,,,,,,,,,,,,,,,,,,,,,,,,,,,,,,,,,,,,,,,,,1,0,0,1,1,Pm-test-144trials,001,internal pilot,B,2022-05-04_24h36.08.099,gonogo_uncertainty,2021.2.3,Linux armv8l,59.84440455,,,,,,,Go,1.4809,472,0.303083846,-0.092927433,1,0,0,0,31,31,8,1,,,,,,,,,,,,,,,
,,,,,,,,,,,,,,,,,,,,,,,,,,,,,,,,,,,,,,,,,,0,1,0,1,0,Pm-test-144trials,001,internal pilot,B,2022-05-04_24h36.08.099,gonogo_uncertainty,2021.2.3,Linux armv8l,59.84440455,,,,,,,NoGo,,472,0.301133387,-0.093455639,0,0,0,0,32,32,14,1,,,,,,,,,,,,,,,
,,,,,,,,,,,,,,,,,,,,,,,,,,,,,,,,,,,,,,,,,,0,0,1,0,1,Pm-test-144trials,001,internal pilot,B,2022-05-04_24h36.08.099,gonogo_uncertainty,2021.2.3,Linux armv8l,59.84440455,,,,,,,NoGo,,470,0.301133387,-0.093455639,0,0,0,0,33,33,31,1,,,,,,,,,,,,,,,
,,,,,,,,,,,,,,,,,,,,,,,,,,,,,,,,,,,,,,,,,,1,0,0,1,1,Pm-test-144trials,001,internal pilot,B,2022-05-04_24h36.08.099,gonogo_uncertainty,2021.2.3,Linux armv8l,59.84440455,,,,,,,Go,1.554,468,0.438881587,-0.023728306,1,0,0,0,34,34,2,1,,,,,,,,,,,,,,,
,,,,,,,,,,,,,,,,,,,,,,,,,,,,,,,,,,,,,,,,,,0,1,0,1,0,Pm-test-144trials,001,internal pilot,B,2022-05-04_24h36.08.099,gonogo_uncertainty,2021.2.3,Linux armv8l,59.84440455,,,,,,,NoGo,,468,0.437174973,-0.021615334,0,0,0,0,35,35,21,1,,,,,,,,,,,,,,,
,,,,,,,,,,,,,,,,,,,,,,,,,,,,,,,,,,,,,,,,,,0,1,0,1,0,Pm-test-144trials,001,internal pilot,B,2022-05-04_24h36.08.099,gonogo_uncertainty,2021.2.3,Linux armv8l,59.84440455,,,,,,,Go,0.9132,466,0.381588093,-0.016861184,1,0,0,,,,,,0,0,0,12,1,,,,,,,,,,
,,,,,,,,,,,,,,,,,,,,,,,,,,,,,,,,,,,,,,,,,,0,1,0,1,0,Pm-test-144trials,001,internal pilot,B,2022-05-04_24h36.08.099,gonogo_uncertainty,2021.2.3,Linux armv8l,59.84440455,,,,,,,NoGo,,466,0.381588093,-0.016861184,0,0,0,,,,,,0,1,1,20,1,,,,,,,,,,
,,,,,,,,,,,,,,,,,,,,,,,,,,,,,,,,,,,,,,,,,,0,1,0,1,0,Pm-test-144trials,001,internal pilot,B,2022-05-04_24h36.08.099,gonogo_uncertainty,2021.2.3,Linux armv8l,59.84440455,,,,,,,NoGo,,466,0.381588093,-0.016861184,0,0,0,,,,,,0,2,2,17,1,,,,,,,,,,
,,,,,,,,,,,,,,,,,,,,,,,,,,,,,,,,,,,,,,,,,,1,0,0,0,0,Pm-test-144trials,001,internal pilot,B,2022-05-04_24h36.08.099,gonogo_uncertainty,2021.2.3,Linux armv8l,59.84440455,,,,,,,Go,1.988,466,0.392559163,0.002155341,1,0,0,,,,,,0,3,3,5,1,,,,,,,,,,
,,,,,,,,,,,,,,,,,,,,,,,,,,,,,,,,,,,,,,,,,,1,0,0,0,1,Pm-test-144trials,001,internal pilot,B,2022-05-04_24h36.08.099,gonogo_uncertainty,2021.2.3,Linux armv8l,59.84440455,,,,,,,Go,0.677,466,0.311373072,-0.07074145,1,0,0,,,,,,0,4,4,1,1,,,,,,,,,,
,,,,,,,,,,,,,,,,,,,,,,,,,,,,,,,,,,,,,,,,,,0,0,1,0,1,Pm-test-144trials,001,internal pilot,B,2022-05-04_24h36.08.099,gonogo_uncertainty,2021.2.3,Linux armv8l,59.84440455,,,,,,,Go,1.243,466,0.372079794,-0.024784718,1,0,0,,,,,,0,5,5,35,1,,,,,,,,,,
,,,,,,,,,,,,,,,,,,,,,,,,,,,,,,,,,,,,,,,,,,0,1,0,1,0,Pm-test-144trials,001,internal pilot,B,2022-05-04_24h36.08.099,gonogo_uncertainty,2021.2.3,Linux armv8l,59.84440455,,,,,,,NoGo,,466,0.372079794,-0.024784718,0,0,0,,,,,,0,6,6,15,1,,,,,,,,,,
,,,,,,,,,,,,,,,,,,,,,,,,,,,,,,,,,,,,,,,,,,1,0,0,1,1,Pm-test-144trials,001,internal pilot,B,2022-05-04_24h36.08.099,gonogo_uncertainty,2021.2.3,Linux armv8l,59.84440455,,,,,,,Go,1.0905,464,0.395484776,-0.00840937,1,0,0,,,,,,0,7,7,3,1,,,,,,,,,,
,,,,,,,,,,,,,,,,,,,,,,,,,,,,,,,,,,,,,,,,,,1,0,0,0,1,Pm-test-144trials,001,internal pilot,B,2022-05-04_24h36.08.099,gonogo_uncertainty,2021.2.3,Linux armv8l,59.84440455,,,,,,,NoGo,,462,0.373298793,-0.011050548,0,0,0,,,,,,0,8,8,4,1,,,,,,,,,,
,,,,,,,,,,,,,,,,,,,,,,,,,,,,,,,,,,,,,,,,,,0,1,0,1,0,Pm-test-144trials,001,internal pilot,B,2022-05-04_24h36.08.099,gonogo_uncertainty,2021.2.3,Linux armv8l,59.84440455,,,,,,,NoGo,,462,0.373298793,-0.011050548,0,0,0,,,,,,0,9,9,16,1,,,,,,,,,,
,,,,,,,,,,,,,,,,,,,,,,,,,,,,,,,,,,,,,,,,,,0,1,0,1,1,Pm-test-144trials,001,internal pilot,B,2022-05-04_24h36.08.099,gonogo_uncertainty,2021.2.3,Linux armv8l,59.84440455,,,,,,,NoGo,,460,0.373298793,-0.011050548,0,0,0,,,,,,0,10,10,13,1,,,,,,,,,,
,,,,,,,,,,,,,,,,,,,,,,,,,,,,,,,,,,,,,,,,,,1,0,0,0,1,Pm-test-144trials,001,internal pilot,B,2022-05-04_24h36.08.099,gonogo_uncertainty,2021.2.3,Linux armv8l,59.84440455,,,,,,,Go,1.0845,460,0.382807093,-0.005768193,1,0,0,,,,,,0,11,11,7,1,,,,,,,,,,
,,,,,,,,,,,,,,,,,,,,,,,,,,,,,,,,,,,,,,,,,,0,1,0,1,0,Pm-test-144trials,001,internal pilot,B,2022-05-04_24h36.08.099,gonogo_uncertainty,2021.2.3,Linux armv8l,59.84440455,,,,,,,NoGo,,460,0.36769141,-0.007881165,0,0,0,,,,,,0,12,12,23,1,,,,,,,,,,
,,,,,,,,,,,,,,,,,,,,,,,,,,,,,,,,,,,,,,,,,,0,1,0,1,0,Pm-test-144trials,001,internal pilot,B,2022-05-04_24h36.08.099,gonogo_uncertainty,2021.2.3,Linux armv8l,59.84440455,,,,,,,Go,0.8724,458,0.373298793,-0.01316352,1,0,0,,,,,,0,13,13,19,1,,,,,,,,,,
,,,,,,,,,,,,,,,,,,,,,,,,,,,,,,,,,,,,,,,,,,1,0,0,0,1,Pm-test-144trials,001,internal pilot,B,2022-05-04_24h36.08.099,gonogo_uncertainty,2021.2.3,Linux armv8l,59.84440455,,,,,,,Go,1.1985,458,0.20166223,-0.046970701,1,0,0,,,,,,0,14,14,10,1,,,,,,,,,,
,,,,,,,,,,,,,,,,,,,,,,,,,,,,,,,,,,,,,,,,,,1,0,0,0,1,Pm-test-144trials,001,internal pilot,B,2022-05-04_24h36.08.099,gonogo_uncertainty,2021.2.3,Linux armv8l,59.84440455,,,,,,,Go,0.5224,458,0.299670618,0.005853005,1,0,0,,,,,,0,15,15,11,1,,,,,,,,,,
,,,,,,,,,,,,,,,,,,,,,,,,,,,,,,,,,,,,,,,,,,0,1,0,1,0,Pm-test-144trials,001,internal pilot,B,2022-05-04_24h36.08.099,gonogo_uncertainty,2021.2.3,Linux armv8l,59.84440455,,,,,,,NoGo,,458,0.302108617,0.009022463,0,0,0,,,,,,0,16,16,21,1,,,,,,,,,,
,,,,,,,,,,,,,,,,,,,,,,,,,,,,,,,,,,,,,,,,,,0,0,1,0,0,Pm-test-144trials,001,internal pilot,B,2022-05-04_24h36.08.099,gonogo_uncertainty,2021.2.3,Linux armv8l,59.84440455,,,,,,,Go,1.2906,458,0.426447748,-0.095568611,1,0,0,,,,,,0,17,17,30,1,,,,,,,,,,
,,,,,,,,,,,,,,,,,,,,,,,,,,,,,,,,,,,,,,,,,,1,0,0,1,1,Pm-test-144trials,001,internal pilot,B,2022-05-04_24h36.08.099,gonogo_uncertainty,2021.2.3,Linux armv8l,59.84440455,,,,,,,Go,1.2658,456,0.417426989,-0.043801317,1,0,0,,,,,,0,18,18,8,1,,,,,,,,,,
,,,,,,,,,,,,,,,,,,,,,,,,,,,,,,,,,,,,,,,,,,0,0,1,1,1,Pm-test-144trials,001,internal pilot,B,2022-05-04_24h36.08.099,gonogo_uncertainty,2021.2.3,Linux armv8l,59.84440455,,,,,,,Go,0.892,454,0.410600533,-0.098209788,1,0,0,,,,,,0,19,19,28,1,,,,,,,,,,
,,,,,,,,,,,,,,,,,,,,,,,,,,,,,,,,,,,,,,,,,,0,0,1,1,1,Pm-test-144trials,001,internal pilot,B,2022-05-04_24h36.08.099,gonogo_uncertainty,2021.2.3,Linux armv8l,59.84440455,,,,,,,NoGo,,452,0.409137689,-0.096096817,0,0,0,,,,,,0,20,20,32,1,,,,,,,,,,
,,,,,,,,,,,,,,,,,,,,,,,,,,,,,,,,,,,,,,,,,,1,0,0,0,0,Pm-test-144trials,001,internal pilot,B,2022-05-04_24h36.08.099,gonogo_uncertainty,2021.2.3,Linux armv8l,59.84440455,,,,,,,Go,1.6552,452,0.340385511,-0.129375791,1,0,0,,,,,,0,21,21,6,1,,,,,,,,,,
,,,,,,,,,,,,,,,,,,,,,,,,,,,,,,,,,,,,,,,,,,0,0,1,0,0,Pm-test-144trials,001,internal pilot,B,2022-05-04_24h36.08.099,gonogo_uncertainty,2021.2.3,Linux armv8l,59.84440455,,,,,,,Go,0.8218,452,0.255542422,-0.255624567,1,0,0,,,,,,0,22,22,27,1,,,,,,,,,,
,,,,,,,,,,,,,,,,,,,,,,,,,,,,,,,,,,,,,,,,,,0,1,0,1,1,Pm-test-144trials,001,internal pilot,B,2022-05-04_24h36.08.099,gonogo_uncertainty,2021.2.3,Linux armv8l,59.84440455,,,,,,,NoGo,,450,0.256517651,-0.257737539,0,0,0,,,,,,0,23,23,22,1,,,,,,,,,,
,,,,,,,,,,,,,,,,,,,,,,,,,,,,,,,,,,,,,,,,,,0,0,1,0,0,Pm-test-144trials,001,internal pilot,B,2022-05-04_24h36.08.099,gonogo_uncertainty,2021.2.3,Linux armv8l,59.84440455,,,,,,,Go,1.0876,450,0.295526005,-0.225515125,1,0,0,,,,,,0,24,24,34,1,,,,,,,,,,
,,,,,,,,,,,,,,,,,,,,,,,,,,,,,,,,,,,,,,,,,,0,1,0,1,0,Pm-test-144trials,001,internal pilot,B,2022-05-04_24h36.08.099,gonogo_uncertainty,2021.2.3,Linux armv8l,59.84440455,,,,,,,Go,0.9083,448,0.195323314,0.125763014,1,0,0,,,,,,0,25,25,14,1,,,,,,,,,,
,,,,,,,,,,,,,,,,,,,,,,,,,,,,,,,,,,,,,,,,,,0,0,1,1,0,Pm-test-144trials,001,internal pilot,B,2022-05-04_24h36.08.099,gonogo_uncertainty,2021.2.3,Linux armv8l,59.84440455,,,,,,,Go,0.9905,446,0.299670618,0.079278076,1,0,0,,,,,,0,26,26,29,1,,,,,,,,,,
,,,,,,,,,,,,,,,,,,,,,,,,,,,,,,,,,,,,,,,,,,1,0,0,0,1,Pm-test-144trials,001,internal pilot,B,2022-05-04_24h36.08.099,gonogo_uncertainty,2021.2.3,Linux armv8l,59.84440455,,,,,,,Go,1.1088,446,0.223604369,-0.025312998,1,0,0,,,,,,0,27,27,9,1,,,,,,,,,,
,,,,,,,,,,,,,,,,,,,,,,,,,,,,,,,,,,,,,,,,,,0,0,1,0,1,Pm-test-144trials,001,internal pilot,B,2022-05-04_24h36.08.099,gonogo_uncertainty,2021.2.3,Linux armv8l,59.84440455,,,,,,,NoGo,,444,0.223604369,-0.025312998,0,0,0,,,,,,0,28,28,31,1,,,,,,,,,,
,,,,,,,,,,,,,,,,,,,,,,,,,,,,,,,,,,,,,,,,,,0,0,1,1,1,Pm-test-144trials,001,internal pilot,B,2022-05-04_24h36.08.099,gonogo_uncertainty,2021.2.3,Linux armv8l,59.84440455,,,,,,,NoGo,,442,0.223604369,-0.025312998,0,0,0,,,,,,0,29,29,33,1,,,,,,,,,,
,,,,,,,,,,,,,,,,,,,,,,,,,,,,,,,,,,,,,,,,,,1,0,0,1,1,Pm-test-144trials,001,internal pilot,B,2022-05-04_24h36.08.099,gonogo_uncertainty,2021.2.3,Linux armv8l,59.84440455,,,,,,,Go,0.7491,440,0.214339914,-0.031123634,1,0,0,,,,,,0,30,30,2,1,,,,,,,,,,
,,,,,,,,,,,,,,,,,,,,,,,,,,,,,,,,,,,,,,,,,,0,0,1,1,0,Pm-test-144trials,001,internal pilot,B,2022-05-04_24h36.08.099,gonogo_uncertainty,2021.2.3,Linux armv8l,59.84440455,,,,,,,NoGo,,440,0.214339914,-0.031123634,0,0,0,,,,,,0,31,31,26,1,,,,,,,,,,
,,,,,,,,,,,,,,,,,,,,,,,,,,,,,,,,,,,,,,,,,,1,0,0,1,0,Pm-test-144trials,001,internal pilot,B,2022-05-04_24h36.08.099,gonogo_uncertainty,2021.2.3,Linux armv8l,59.84440455,,,,,,,Go,1.0507,438,0.407918689,-0.076552011,1,0,0,,,,,,0,32,32,0,1,,,,,,,,,,
,,,,,,,,,,,,,,,,,,,,,,,,,,,,,,,,,,,,,,,,,,0,0,1,0,1,Pm-test-144trials,001,internal pilot,B,2022-05-04_24h36.08.099,gonogo_uncertainty,2021.2.3,Linux armv8l,59.84440455,,,,,,,NoGo,,436,0.407918689,-0.076552011,0,0,0,,,,,,0,33,33,25,1,,,,,,,,,,
,,,,,,,,,,,,,,,,,,,,,,,,,,,,,,,,,,,,,,,,,,0,0,1,1,1,Pm-test-144trials,001,internal pilot,B,2022-05-04_24h36.08.099,gonogo_uncertainty,2021.2.3,Linux armv8l,59.84440455,,,,,,,NoGo,,434,0.407918689,-0.076552011,0,0,0,,,,,,0,34,34,24,1,,,,,,,,,,
,,,,,,,,,,,,,,,,,,,,,,,,,,,,,,,,,,,,,,,,,,0,1,0,0,1,Pm-test-144trials,001,internal pilot,B,2022-05-04_24h36.08.099,gonogo_uncertainty,2021.2.3,Linux armv8l,59.84440455,,,,,,,NoGo,,432,0.407918689,-0.076552011,0,0,0,,,,,,0,35,35,18,1,,,,,,,,,,
,,,,,,,,,,,,,,,,,,,,,,,,,,,,,,,,,,,,,,,,,,1,0,0,1,1,Pm-test-144trials,001,internal pilot,B,2022-05-04_24h36.08.099,gonogo_uncertainty,2021.2.3,Linux armv8l,59.84440455,,,,,,,Go,1.2451,430,0.429617058,-0.190651384,1,0,0,,,,,,,,,,,0,0,0,0,1,,,,,
,,,,,,,,,,,,,,,,,,,,,,,,,,,,,,,,,,,,,,,,,,0,0,1,0,0,Pm-test-144trials,001,internal pilot,B,2022-05-04_24h36.08.099,gonogo_uncertainty,2021.2.3,Linux armv8l,59.84440455,,,,,,,NoGo,,430,0.427179059,-0.192764356,0,0,0,,,,,,,,,,,0,1,1,34,1,,,,,
,,,,,,,,,,,,,,,,,,,,,,,,,,,,,,,,,,,,,,,,,,0,1,0,0,0,Pm-test-144trials,001,internal pilot,B,2022-05-04_24h36.08.099,gonogo_uncertainty,2021.2.3,Linux armv8l,59.84440455,,,,,,,NoGo,,430,0.427179059,-0.192764356,0,0,0,,,,,,,,,,,0,2,2,22,1,,,,,
,,,,,,,,,,,,,,,,,,,,,,,,,,,,,,,,,,,,,,,,,,0,1,0,1,0,Pm-test-144trials,001,internal pilot,B,2022-05-04_24h36.08.099,gonogo_uncertainty,2021.2.3,Linux armv8l,59.84440455,,,,,,,NoGo,,430,0.427179059,-0.192764356,0,0,0,,,,,,,,,,,0,3,3,19,1,,,,,
,,,,,,,,,,,,,,,,,,,,,,,,,,,,,,,,,,,,,,,,,,0,1,0,0,1,Pm-test-144trials,001,internal pilot,B,2022-05-04_24h36.08.099,gonogo_uncertainty,2021.2.3,Linux armv8l,59.84440455,,,,,,,NoGo,,428,0.427179059,-0.192764356,0,0,0,,,,,,,,,,,0,4,4,18,1,,,,,
,,,,,,,,,,,,,,,,,,,,,,,,,,,,,,,,,,,,,,,,,,1,0,0,0,1,Pm-test-144trials,001,internal pilot,B,2022-05-04_24h36.08.099,gonogo_uncertainty,2021.2.3,Linux armv8l,59.84440455,,,,,,,Go,1.4412,428,0.082443015,-0.129375791,1,0,0,,,,,,,,,,,0,5,5,2,1,,,,,
,,,,,,,,,,,,,,,,,,,,,,,,,,,,,,,,,,,,,,,,,,0,1,0,0,0,Pm-test-144trials,001,internal pilot,B,2022-05-04_24h36.08.099,gonogo_uncertainty,2021.2.3,Linux armv8l,59.84440455,,,,,,,NoGo,,428,0.086831435,-0.116698108,0,0,0,,,,,,,,,,,0,6,6,17,1,,,,,
,,,,,,,,,,,,,,,,,,,,,,,,,,,,,,,,,,,,,,,,,,0,1,0,0,0,Pm-test-144trials,001,internal pilot,B,2022-05-04_24h36.08.099,gonogo_uncertainty,2021.2.3,Linux armv8l,59.84440455,,,,,,,NoGo,,428,0.086831435,-0.116698108,0,0,0,,,,,,,,,,,0,7,7,23,1,,,,,
,,,,,,,,,,,,,,,,,,,,,,,,,,,,,,,,,,,,,,,,,,0,0,1,0,0,Pm-test-144trials,001,internal pilot,B,2022-05-04_24h36.08.099,gonogo_uncertainty,2021.2.3,Linux armv8l,59.84440455,,,,,,,NoGo,,428,0.086831435,-0.116698108,0,0,0,,,,,,,,,,,0,8,8,33,1,,,,,
,,,,,,,,,,,,,,,,,,,,,,,,,,,,,,,,,,,,,,,,,,0,0,1,0,1,Pm-test-144trials,001,internal pilot,B,2022-05-04_24h36.08.099,gonogo_uncertainty,2021.2.3,Linux armv8l,59.84440455,,,,,,,NoGo,,426,0.086831435,-0.116698108,0,0,0,,,,,,,,,,,0,9,9,26,1,,,,,
,,,,,,,,,,,,,,,,,,,,,,,,,,,,,,,,,,,,,,,,,,0,0,1,0,1,Pm-test-144trials,001,internal pilot,B,2022-05-04_24h36.08.099,gonogo_uncertainty,2021.2.3,Linux armv8l,59.84440455,,,,,,,NoGo,,424,0.086831435,-0.116698108,0,0,0,,,,,,,,,,,0,10,10,28,1,,,,,
,,,,,,,,,,,,,,,,,,,,,,,,,,,,,,,,,,,,,,,,,,1,0,0,0,1,Pm-test-144trials,001,internal pilot,B,2022-05-04_24h36.08.099,gonogo_uncertainty,2021.2.3,Linux armv8l,59.84440455,,,,,,,Go,1.648,424,0.235794512,-0.133601735,1,0,0,,,,,,,,,,,0,11,11,8,1,,,,,
,,,,,,,,,,,,,,,,,,,,,,,,,,,,,,,,,,,,,,,,,,1,0,0,0,1,Pm-test-144trials,001,internal pilot,B,2022-05-04_24h36.08.099,gonogo_uncertainty,2021.2.3,Linux armv8l,59.84440455,,,,,,,Go,1.4711,424,0.168261334,-0.177973701,1,0,0,,,,,,,,,,,0,12,12,1,1,,,,,
,,,,,,,,,,,,,,,,,,,,,,,,,,,,,,,,,,,,,,,,,,0,0,1,0,1,Pm-test-144trials,001,internal pilot,B,2022-05-04_24h36.08.099,gonogo_uncertainty,2021.2.3,Linux armv8l,59.84440455,,,,,,,NoGo,,422,0.171674562,-0.175332523,0,0,0,,,,,,,,,,,0,13,13,29,1,,,,,
,,,,,,,,,,,,,,,,,,,,,,,,,,,,,,,,,,,,,,,,,,0,1,0,1,0,Pm-test-144trials,001,internal pilot,B,2022-05-04_24h36.08.099,gonogo_uncertainty,2021.2.3,Linux armv8l,59.84440455,,,,,,,Go,0.54,420,0.26846395,0.007437771,1,0,0,,,,,,,,,,,0,14,14,20,1,,,,,
,,,,,,,,,,,,,,,,,,,,,,,,,,,,,,,,,,,,,,,,,,1,0,0,0,1,Pm-test-144trials,001,internal pilot,B,2022-05-04_24h36.08.099,gonogo_uncertainty,2021.2.3,Linux armv8l,59.84440455,,,,,,,NoGo,,418,0.275290406,0.009022463,0,0,0,,,,,,,,,,,0,15,15,7,1,,,,,
,,,,,,,,,,,,,,,,,,,,,,,,,,,,,,,,,,,,,,,,,,0,0,1,1,1,Pm-test-144trials,001,internal pilot,B,2022-05-04_24h36.08.099,gonogo_uncertainty,2021.2.3,Linux armv8l,59.84440455,,,,,,,Go,1.5345,416,0.299670618,-0.068628478,1,0,0,,,,,,,,,,,0,16,16,27,1,,,,,
,,,,,,,,,,,,,,,,,,,,,,,,,,,,,,,,,,,,,,,,,,0,1,0,1,1,Pm-test-144trials,001,internal pilot,B,2022-05-04_24h36.08.099,gonogo_uncertainty,2021.2.3,Linux armv8l,59.84440455,,,,,,,NoGo,,414,0.299183003,-0.0659873,0,0,0,,,,,,,,,,,0,17,17,16,1,,,,,
,,,,,,,,,,,,,,,,,,,,,,,,,,,,,,,,,,,,,,,,,,0,0,1,0,1,Pm-test-144trials,001,internal pilot,B,2022-05-04_24h36.08.099,gonogo_uncertainty,2021.2.3,Linux armv8l,59.84440455,,,,,,,NoGo,,412,0.299183003,-0.0659873,0,0,0,,,,,,,,,,,0,18,18,30,1,,,,,
,,,,,,,,,,,,,,,,,,,,,,,,,,,,,,,,,,,,,,,,,,1,0,0,0,1,Pm-test-144trials,001,internal pilot,B,2022-05-04_24h36.08.099,gonogo_uncertainty,2021.2.3,Linux armv8l,59.84440455,,,,,,,Go,0.9542,412,0.093414121,0.100407573,1,0,0,,,,,,,,,,,0,19,19,11,1,,,,,
,,,,,,,,,,,,,,,,,,,,,,,,,,,,,,,,,,,,,,,,,,0,0,1,0,1,Pm-test-144trials,001,internal pilot,B,2022-05-04_24h36.08.099,gonogo_uncertainty,2021.2.3,Linux armv8l,59.84440455,,,,,,,Go,0.8217,412,0.102922384,-0.153674746,1,0,0,,,,,,,,,,,0,20,20,35,1,,,,,
,,,,,,,,,,,,,,,,,,,,,,,,,,,,,,,,,,,,,,,,,,0,0,1,0,0,Pm-test-144trials,001,internal pilot,B,2022-05-04_24h36.08.099,gonogo_uncertainty,2021.2.3,Linux armv8l,59.84440455,,,,,,,Go,1.0827,412,0.156071191,-0.237664528,1,0,0,,,,,,,,,,,0,21,21,24,1,,,,,
,,,,,,,,,,,,,,,,,,,,,,,,,,,,,,,,,,,,,,,,,,1,0,0,0,0,Pm-test-144trials,001,internal pilot,B,2022-05-04_24h36.08.099,gonogo_uncertainty,2021.2.3,Linux armv8l,59.84440455,,,,,,,NoGo,,412,0.156071191,-0.237664528,0,0,0,,,,,,,,,,,0,22,22,10,1,,,,,
,,,,,,,,,,,,,,,,,,,,,,,,,,,,,,,,,,,,,,,,,,0,0,1,0,1,Pm-test-144trials,001,internal pilot,B,2022-05-04_24h36.08.099,gonogo_uncertainty,2021.2.3,Linux armv8l,59.84440455,,,,,,,Go,1.1227,412,0.288455704,0.054450915,1,0,0,,,,,,,,,,,0,23,23,31,1,,,,,
,,,,,,,,,,,,,,,,,,,,,,,,,,,,,,,,,,,,,,,,,,1,0,0,0,1,Pm-test-144trials,001,internal pilot,B,2022-05-04_24h36.08.099,gonogo_uncertainty,2021.2.3,Linux armv8l,59.84440455,,,,,,,Go,0.8718,412,0.279678937,0.059205064,1,0,0,,,,,,,,,,,0,24,24,3,1,,,,,
,,,,,,,,,,,,,,,,,,,,,,,,,,,,,,,,,,,,,,,,,,1,0,0,0,1,Pm-test-144trials,001,internal pilot,B,2022-05-04_24h36.08.099,gonogo_uncertainty,2021.2.3,Linux armv8l,59.84440455,,,,,,,Go,0.4954,412,0.314298759,0.086673403,1,0,0,,,,,,,,,,,0,25,25,9,1,,,,,
,,,,,,,,,,,,,,,,,,,,,,,,,,,,,,,,,,,,,,,,,,0,0,1,0,0,Pm-test-144trials,001,internal pilot,B,2022-05-04_24h36.08.099,gonogo_uncertainty,2021.2.3,Linux armv8l,59.84440455,,,,,,,Go,0.7783,412,0.284067247,0.062902728,1,0,0,,,,,,,,,,,0,26,26,32,1,,,,,
,,,,,,,,,,,,,,,,,,,,,,,,,,,,,,,,,,,,,,,,,,1,0,0,0,1,Pm-test-144trials,001,internal pilot,B,2022-05-04_24h36.08.099,gonogo_uncertainty,2021.2.3,Linux armv8l,59.84440455,,,,,,,NoGo,,410,0.284067247,0.062902728,0,0,0,,,,,,,,,,,0,27,27,5,1,,,,,
,,,,,,,,,,,,,,,,,,,,,,,,,,,,,,,,,,,,,,,,,,1,0,0,1,1,Pm-test-144trials,001,internal pilot,B,2022-05-04_24h36.08.099,gonogo_uncertainty,2021.2.3,Linux armv8l,59.84440455,,,,,,,Go,1.1203,408,0.186058859,-0.00840937,1,0,0,,,,,,,,,,,0,28,28,4,1,,,,,
,,,,,,,,,,,,,,,,,,,,,,,,,,,,,,,,,,,,,,,,,,0,1,0,1,0,Pm-test-144trials,001,internal pilot,B,2022-05-04_24h36.08.099,gonogo_uncertainty,2021.2.3,Linux armv8l,59.84440455,,,,,,,Go,1.9349,406,0.424253445,0.172776157,1,0,0,,,,,,,,,,,0,29,29,14,1,,,,,
,,,,,,,,,,,,,,,,,,,,,,,,,,,,,,,,,,,,,,,,,,0,1,0,1,0,Pm-test-144trials,001,internal pilot,B,2022-05-04_24h36.08.099,gonogo_uncertainty,2021.2.3,Linux armv8l,59.84440455,,,,,,,NoGo,,406,0.422546831,0.177530307,0,0,0,,,,,,,,,,,0,30,30,13,1,,,,,
,,,,,,,,,,,,,,,,,,,,,,,,,,,,,,,,,,,,,,,,,,1,0,0,0,1,Pm-test-144trials,001,internal pilot,B,2022-05-04_24h36.08.099,gonogo_uncertainty,2021.2.3,Linux armv8l,59.84440455,,,,,,,Go,0.856,406,0.259930879,0.018002482,1,0,0,,,,,,,,,,,0,31,31,6,1,,,,,
,,,,,,,,,,,,,,,,,,,,,,,,,,,,,,,,,,,,,,,,,,0,1,0,1,1,Pm-test-144trials,001,internal pilot,B,2022-05-04_24h36.08.099,gonogo_uncertainty,2021.2.3,Linux armv8l,59.84440455,,,,,,,NoGo,,404,0.259930879,0.018002482,0,0,0,,,,,,,,,,,0,32,32,21,1,,,,,
,,,,,,,,,,,,,,,,,,,,,,,,,,,,,,,,,,,,,,,,,,0,1,0,1,0,Pm-test-144trials,001,internal pilot,B,2022-05-04_24h36.08.099,gonogo_uncertainty,2021.2.3,Linux armv8l,59.84440455,,,,,,,NoGo,,404,0.259930879,0.018002482,0,0,0,,,,,,,,,,,0,33,33,15,1,,,,,
,,,,,,,,,,,,,,,,,,,,,,,,,,,,,,,,,,,,,,,,,,0,0,1,1,1,Pm-test-144trials,001,internal pilot,B,2022-05-04_24h36.08.099,gonogo_uncertainty,2021.2.3,Linux armv8l,59.84440455,,,,,,,Go,1.7091,402,0.385976551,0.089314581,1,0,0,,,,,,,,,,,0,34,34,25,1,,,,,
,,,,,,,,,,,,,,,,,,,,,,,,,,,,,,,,,,,,,,,,,,0,1,0,1,0,Pm-test-144trials,001,internal pilot,B,2022-05-04_24h36.08.099,gonogo_uncertainty,2021.2.3,Linux armv8l,59.84440455,,,,,,,NoGo,,402,0.381831864,0.088786375,0,0,0,,,,,,,,,,,0,35,35,12,1,,,,,
,,,,,,,,,,,,,,,,,,,,,,,,,,,,,,,,,,,,,,,,,,1,0,0,0,1,Pm-test-144trials,001,internal pilot,B,2022-05-04_24h36.08.099,gonogo_uncertainty,2021.2.3,Linux armv8l,59.84440455,,,,,,,Go,1.9787,402,0.392315466,0.168022008,1,0,0,,,,,,,,,,,,,,,,0,0,0,8,1
,,,,,,,,,,,,,,,,,,,,,,,,,,,,,,,,,,,,,,,,,,0,1,0,1,1,Pm-test-144trials,001,internal pilot,B,2022-05-04_24h36.08.099,gonogo_uncertainty,2021.2.3,Linux armv8l,59.84440455,,,,,,,NoGo,,400,0.411088221,0.175945541,0,0,0,,,,,,,,,,,,,,,,0,1,1,21,1
,,,,,,,,,,,,,,,,,,,,,,,,,,,,,,,,,,,,,,,,,,0,0,1,0,0,Pm-test-144trials,001,internal pilot,B,2022-05-04_24h36.08.099,gonogo_uncertainty,2021.2.3,Linux armv8l,59.84440455,,,,,,,NoGo,,400,0.411088221,0.175945541,0,0,0,,,,,,,,,,,,,,,,0,2,2,32,1
,,,,,,,,,,,,,,,,,,,,,,,,,,,,,,,,,,,,,,,,,,1,0,0,0,1,Pm-test-144trials,001,internal pilot,B,2022-05-04_24h36.08.099,gonogo_uncertainty,2021.2.3,Linux armv8l,59.84440455,,,,,,,Go,0.8697,400,0.340629355,-0.092399153,1,0,0,,,,,,,,,,,,,,,,0,3,3,7,1
,,,,,,,,,,,,,,,,,,,,,,,,,,,,,,,,,,,,,,,,,,0,1,0,0,0,Pm-test-144trials,001,internal pilot,B,2022-05-04_24h36.08.099,gonogo_uncertainty,2021.2.3,Linux armv8l,59.84440455,,,,,,,NoGo,,400,0.338922741,-0.094512125,0,0,0,,,,,,,,,,,,,,,,0,4,4,22,1
,,,,,,,,,,,,,,,,,,,,,,,,,,,,,,,,,,,,,,,,,,0,1,0,1,0,Pm-test-144trials,001,internal pilot,B,2022-05-04_24h36.08.099,gonogo_uncertainty,2021.2.3,Linux armv8l,59.84440455,,,,,,,NoGo,,400,0.338922741,-0.094512125,0,0,0,,,,,,,,,,,,,,,,0,5,5,13,1
,,,,,,,,,,,,,,,,,,,,,,,,,,,,,,,,,,,,,,,,,,0,0,1,0,1,Pm-test-144trials,001,internal pilot,B,2022-05-04_24h36.08.099,gonogo_uncertainty,2021.2.3,Linux armv8l,59.84440455,,,,,,,Go,0.6373,400,0.344042584,-0.108246294,1,0,0,,,,,,,,,,,,,,,,0,6,6,28,1
,,,,,,,,,,,,,,,,,,,,,,,,,,,,,,,,,,,,,,,,,,0,0,1,0,0,Pm-test-144trials,001,internal pilot,B,2022-05-04_24h36.08.099,gonogo_uncertainty,2021.2.3,Linux armv8l,59.84440455,,,,,,,Go,0.8735,400,0.207269613,-0.191179738,1,0,0,,,,,,,,,,,,,,,,0,7,7,34,1
,,,,,,,,,,,,,,,,,,,,,,,,,,,,,,,,,,,,,,,,,,1,0,0,0,1,Pm-test-144trials,001,internal pilot,B,2022-05-04_24h36.08.099,gonogo_uncertainty,2021.2.3,Linux armv8l,59.84440455,,,,,,,Go,1.4665,400,0.150463808,-0.155787718,1,0,0,,,,,,,,,,,,,,,,0,8,8,9,1
,,,,,,,,,,,,,,,,,,,,,,,,,,,,,,,,,,,,,,,,,,0,1,0,1,0,Pm-test-144trials,001,internal pilot,B,2022-05-04_24h36.08.099,gonogo_uncertainty,2021.2.3,Linux armv8l,59.84440455,,,,,,,NoGo,,400,0.150463808,-0.155787718,0,0,0,,,,,,,,,,,,,,,,0,9,9,19,1
,,,,,,,,,,,,,,,,,,,,,,,,,,,,,,,,,,,,,,,,,,1,0,0,0,1,Pm-test-144trials,001,internal pilot,B,2022-05-04_24h36.08.099,gonogo_uncertainty,2021.2.3,Linux armv8l,59.84440455,,,,,,,Go,0.76,400,0.257492954,-0.005239987,1,0,0,,,,,,,,,,,,,,,,0,10,10,11,1
,,,,,,,,,,,,,,,,,,,,,,,,,,,,,,,,,,,,,,,,,,0,0,1,0,1,Pm-test-144trials,001,internal pilot,B,2022-05-04_24h36.08.099,gonogo_uncertainty,2021.2.3,Linux armv8l,59.84440455,,,,,,,Go,1.4879,400,0.232868824,-0.192764356,1,0,0,,,,,,,,,,,,,,,,0,11,11,30,1
,,,,,,,,,,,,,,,,,,,,,,,,,,,,,,,,,,,,,,,,,,0,0,1,0,1,Pm-test-144trials,001,internal pilot,B,2022-05-04_24h36.08.099,gonogo_uncertainty,2021.2.3,Linux armv8l,59.84440455,,,,,,,Go,1.2772,400,0.247496966,-0.02267182,1,0,0,,,,,,,,,,,,,,,,0,12,12,29,1
,,,,,,,,,,,,,,,,,,,,,,,,,,,,,,,,,,,,,,,,,,0,1,0,1,0,Pm-test-144trials,001,internal pilot,B,2022-05-04_24h36.08.099,gonogo_uncertainty,2021.2.3,Linux armv8l,59.84440455,,,,,,,NoGo,,400,0.247496966,-0.02267182,0,0,0,,,,,,,,,,,,,,,,0,13,13,12,1
,,,,,,,,,,,,,,,,,,,,,,,,,,,,,,,,,,,,,,,,,,0,0,1,1,1,Pm-test-144trials,001,internal pilot,B,2022-05-04_24h36.08.099,gonogo_uncertainty,2021.2.3,Linux armv8l,59.84440455,,,,,,,Go,0.7268,398,0.414013761,0.172776157,1,0,0,,,,,,,,,,,,,,,,0,14,14,25,1
,,,,,,,,,,,,,,,,,,,,,,,,,,,,,,,,,,,,,,,,,,0,0,1,0,1,Pm-test-144trials,001,internal pilot,B,2022-05-04_24h36.08.099,gonogo_uncertainty,2021.2.3,Linux armv8l,59.84440455,,,,,,,Go,0.6334,398,0.370860794,0.065543906,1,0,0,,,,,,,,,,,,,,,,0,15,15,26,1
,,,,,,,,,,,,,,,,,,,,,,,,,,,,,,,,,,,,,,,,,,0,1,0,1,0,Pm-test-144trials,001,internal pilot,B,2022-05-04_24h36.08.099,gonogo_uncertainty,2021.2.3,Linux armv8l,59.84440455,,,,,,,NoGo,,398,0.370860794,0.065543906,0,0,0,,,,,,,,,,,,,,,,0,16,16,20,1
,,,,,,,,,,,,,,,,,,,,,,,,,,,,,,,,,,,,,,,,,,0,0,1,0,1,Pm-test-144trials,001,internal pilot,B,2022-05-04_24h36.08.099,gonogo_uncertainty,2021.2.3,Linux armv8l,59.84440455,,,,,,,Go,0.7564,398,0.338678897,0.007437771,1,0,0,,,,,,,,,,,,,,,,0,17,17,35,1
,,,,,,,,,,,,,,,,,,,,,,,,,,,,,,,,,,,,,,,,,,0,1,0,1,0,Pm-test-144trials,001,internal pilot,B,2022-05-04_24h36.08.099,gonogo_uncertainty,2021.2.3,Linux armv8l,59.84440455,,,,,,,NoGo,,398,0.338678897,0.007437771,0,0,0,,,,,,,,,,,,,,,,0,18,18,14,1
,,,,,,,,,,,,,,,,,,,,,,,,,,,,,,,,,,,,,,,,,,1,0,0,0,1,Pm-test-144trials,001,internal pilot,B,2022-05-04_24h36.08.099,gonogo_uncertainty,2021.2.3,Linux armv8l,59.84440455,,,,,,,NoGo,,396,0.338678897,0.007437771,0,0,0,,,,,,,,,,,,,,,,0,19,19,2,1
,,,,,,,,,,,,,,,,,,,,,,,,,,,,,,,,,,,,,,,,,,1,0,0,0,0,Pm-test-144trials,001,internal pilot,B,2022-05-04_24h36.08.099,gonogo_uncertainty,2021.2.3,Linux armv8l,59.84440455,,,,,,,Go,0.799,396,0.334534284,-0.018445876,1,0,0,,,,,,,,,,,,,,,,0,20,20,10,1
,,,,,,,,,,,,,,,,,,,,,,,,,,,,,,,,,,,,,,,,,,0,1,0,0,0,Pm-test-144trials,001,internal pilot,B,2022-05-04_24h36.08.099,gonogo_uncertainty,2021.2.3,Linux armv8l,59.84440455,,,,,,,NoGo,,396,0.334534284,-0.018445876,0,0,0,,,,,,,,,,,,,,,,0,21,21,17,1
,,,,,,,,,,,,,,,,,,,,,,,,,,,,,,,,,,,,,,,,,,0,1,0,0,1,Pm-test-144trials,001,internal pilot,B,2022-05-04_24h36.08.099,gonogo_uncertainty,2021.2.3,Linux armv8l,59.84440455,,,,,,,NoGo,,394,0.334534284,-0.018445876,0,0,0,,,,,,,,,,,,,,,,0,22,22,18,1
,,,,,,,,,,,,,,,,,,,,,,,,,,,,,,,,,,,,,,,,,,1,0,0,1,1,Pm-test-144trials,001,internal pilot,B,2022-05-04_24h36.08.099,gonogo_uncertainty,2021.2.3,Linux armv8l,59.84440455,,,,,,,Go,0.8017,392,0.329658286,-0.067571992,1,0,0,,,,,,,,,,,,,,,,0,23,23,4,1
,,,,,,,,,,,,,,,,,,,,,,,,,,,,,,,,,,,,,,,,,,0,1,0,0,0,Pm-test-144trials,001,internal pilot,B,2022-05-04_24h36.08.099,gonogo_uncertainty,2021.2.3,Linux armv8l,59.84440455,,,,,,,NoGo,,392,0.329658286,-0.067571992,0,0,0,,,,,,,,,,,,,,,,0,24,24,23,1
,,,,,,,,,,,,,,,,,,,,,,,,,,,,,,,,,,,,,,,,,,0,0,1,0,1,Pm-test-144trials,001,internal pilot,B,2022-05-04_24h36.08.099,gonogo_uncertainty,2021.2.3,Linux armv8l,59.84440455,,,,,,,Go,0.8635,392,0.328439213,-0.068628478,1,0,0,,,,,,,,,,,,,,,,0,25,25,31,1
,,,,,,,,,,,,,,,,,,,,,,,,,,,,,,,,,,,,,,,,,,1,0,0,0,1,Pm-test-144trials,001,internal pilot,B,2022-05-04_24h36.08.099,gonogo_uncertainty,2021.2.3,Linux armv8l,59.84440455,,,,,,,NoGo,,390,0.328439213,-0.068628478,0,0,0,,,,,,,,,,,,,,,,0,26,26,6,1
,,,,,,,,,,,,,,,,,,,,,,,,,,,,,,,,,,,,,,,,,,1,0,0,0,1,Pm-test-144trials,001,internal pilot,B,2022-05-04_24h36.08.099,gonogo_uncertainty,2021.2.3,Linux armv8l,59.84440455,,,,,,,Go,0.5575,390,0.316980529,-0.122508743,1,0,0,,,,,,,,,,,,,,,,0,27,27,1,1
,,,,,,,,,,,,,,,,,,,,,,,,,,,,,,,,,,,,,,,,,,1,0,0,1,1,Pm-test-144trials,001,internal pilot,B,2022-05-04_24h36.08.099,gonogo_uncertainty,2021.2.3,Linux armv8l,59.84440455,,,,,,,Go,0.5081,388,0.306009459,-0.139940577,1,0,0,,,,,,,,,,,,,,,,0,28,28,0,1
,,,,,,,,,,,,,,,,,,,,,,,,,,,,,,,,,,,,,,,,,,0,0,1,0,0,Pm-test-144trials,001,internal pilot,B,2022-05-04_24h36.08.099,gonogo_uncertainty,2021.2.3,Linux armv8l,59.84440455,,,,,,,Go,1.8936,388,0.305765689,-0.136771119,1,0,0,,,,,,,,,,,,,,,,0,29,29,24,1
,,,,,,,,,,,,,,,,,,,,,,,,,,,,,,,,,,,,,,,,,,0,0,1,1,1,Pm-test-144trials,001,internal pilot,B,2022-05-04_24h36.08.099,gonogo_uncertainty,2021.2.3,Linux armv8l,59.84440455,,,,,,,Go,0.9694,386,0.233112669,-0.069684964,1,0,0,,,,,,,,,,,,,,,,0,30,30,27,1
,,,,,,,,,,,,,,,,,,,,,,,,,,,,,,,,,,,,,,,,,,0,1,0,1,1,Pm-test-144trials,001,internal pilot,B,2022-05-04_24h36.08.099,gonogo_uncertainty,2021.2.3,Linux armv8l,59.84440455,,,,,,,NoGo,,384,0.233112669,-0.069684964,0,0,0,,,,,,,,,,,,,,,,0,31,31,16,1
,,,,,,,,,,,,,,,,,,,,,,,,,,,,,,,,,,,,,,,,,,0,0,1,0,0,Pm-test-144trials,001,internal pilot,B,2022-05-04_24h36.08.099,gonogo_uncertainty,2021.2.3,Linux armv8l,59.84440455,,,,,,,Go,0.8472,384,0.166067105,-0.063874328,1,0,0,,,,,,,,,,,,,,,,0,32,32,33,1
,,,,,,,,,,,,,,,,,,,,,,,,,,,,,,,,,,,,,,,,,,1,0,0,0,1,Pm-test-144trials,001,internal pilot,B,2022-05-04_24h36.08.099,gonogo_uncertainty,2021.2.3,Linux armv8l,59.84440455,,,,,,,Go,1.1098,384,0.308691377,0.022756632,1,0,0,,,,,,,,,,,,,,,,0,33,33,3,1
,,,,,,,,,,,,,,,,,,,,,,,,,,,,,,,,,,,,,,,,,,0,1,0,1,0,Pm-test-144trials,001,internal pilot,B,2022-05-04_24h36.08.099,gonogo_uncertainty,2021.2.3,Linux armv8l,59.84440455,,,,,,,NoGo,,384,0.308691377,0.022756632,0,0,0,,,,,,,,,,,,,,,,0,34,34,15,1
,,,,,,,,,,,,,,,,,,,,,,,,,,,,,,,,,,,,,,,,,,1,0,0,0,1,Pm-test-144trials,001,internal pilot,B,2022-05-04_24h36.08.099,gonogo_uncertainty,2021.2.3,Linux armv8l,59.84440455,,,,,,,Go,1.0444,384,0.206538228,-0.152090054,1,0,0,,,,,,,,,,,,,,,,0,35,35,5,1
